trial,sep_dur,cond,Tx,stimulus,block,block.thisRepN,block.thisTrialN,block.thisN,block.thisIndex,trials.thisRepN,trials.thisTrialN,trials.thisN,trials.thisIndex,stim.thisRepN,stim.thisTrialN,stim.thisN,stim.thisIndex,usr_input_t1.keys,usr_input_t1.rt,usr_input_t2.keys,usr_input_t2.rt,date,frameRate,expName,session,participant,
1,long,target,t2,3,1,0,0,0,0,0,0,0,0,0,0,0,0,,,,,2018_Oct_12_1116,60.2510608578,test_experiment,001,pilot_shivani,
2,long,distractor,t2,I,1,0,0,0,0,0,0,0,0,0,1,1,1,,,,,2018_Oct_12_1116,60.2510608578,test_experiment,001,pilot_shivani,
3,long,distractor,t2,K,1,0,0,0,0,0,0,0,0,0,2,2,2,,,,,2018_Oct_12_1116,60.2510608578,test_experiment,001,pilot_shivani,
4,long,distractor,t2,T,1,0,0,0,0,0,0,0,0,0,3,3,3,,,,,2018_Oct_12_1116,60.2510608578,test_experiment,001,pilot_shivani,
5,long,distractor,t2,P,1,0,0,0,0,0,0,0,0,0,4,4,4,,,,,2018_Oct_12_1116,60.2510608578,test_experiment,001,pilot_shivani,
6,long,distractor,t2,Y,1,0,0,0,0,0,0,0,0,0,5,5,5,,,,,2018_Oct_12_1116,60.2510608578,test_experiment,001,pilot_shivani,
7,long,distractor,t2,P,1,0,0,0,0,0,0,0,0,0,6,6,6,,,,,2018_Oct_12_1116,60.2510608578,test_experiment,001,pilot_shivani,
8,long,distractor,t2,R,1,0,0,0,0,0,0,0,0,0,7,7,7,,,,,2018_Oct_12_1116,60.2510608578,test_experiment,001,pilot_shivani,
9,long,target,t2,1,1,0,0,0,0,0,0,0,0,0,8,8,8,,,,,2018_Oct_12_1116,60.2510608578,test_experiment,001,pilot_shivani,
10,long,distractor,t2,X,1,0,0,0,0,0,0,0,0,0,9,9,9,,,,,2018_Oct_12_1116,60.2510608578,test_experiment,001,pilot_shivani,
11,long,distractor,t2,O,1,0,0,0,0,0,0,0,0,0,10,10,10,,,,,2018_Oct_12_1116,60.2510608578,test_experiment,001,pilot_shivani,
12,long,distractor,t2,Q,1,0,0,0,0,0,0,0,0,0,11,11,11,,,,,2018_Oct_12_1116,60.2510608578,test_experiment,001,pilot_shivani,
13,long,distractor,t2,T,1,0,0,0,0,0,0,0,0,0,12,12,12,,,,,2018_Oct_12_1116,60.2510608578,test_experiment,001,pilot_shivani,
14,long,distractor,t2,U,1,0,0,0,0,0,0,0,0,0,13,13,13,,,,,2018_Oct_12_1116,60.2510608578,test_experiment,001,pilot_shivani,
15,long,distractor,t2,N,1,0,0,0,0,0,0,0,0,0,14,14,14,,,,,2018_Oct_12_1116,60.2510608578,test_experiment,001,pilot_shivani,
16,long,mask,t2, ,1,0,0,0,0,0,0,0,0,0,15,15,15,,,,,2018_Oct_12_1116,60.2510608578,test_experiment,001,pilot_shivani,
17,long,distractor,t2,W,1,0,0,0,0,0,0,0,0,0,16,16,16,,,,,2018_Oct_12_1116,60.2510608578,test_experiment,001,pilot_shivani,
18,long,distractor,t2,Q,1,0,0,0,0,0,0,0,0,0,17,17,17,,,,,2018_Oct_12_1116,60.2510608578,test_experiment,001,pilot_shivani,
,,,,,,0,0,0,0,0,0,0,0,,,,,3,0.66783479217,3,1.48539177026,2018_Oct_12_1116,60.2510608578,test_experiment,001,pilot_shivani,
1,short,distractor,t2,Q,2,0,0,0,0,1,0,1,0,0,0,0,0,,,,,2018_Oct_12_1116,60.2510608578,test_experiment,001,pilot_shivani,
2,short,distractor,t2,A,2,0,0,0,0,1,0,1,0,0,1,1,1,,,,,2018_Oct_12_1116,60.2510608578,test_experiment,001,pilot_shivani,
3,short,distractor,t2,F,2,0,0,0,0,1,0,1,0,0,2,2,2,,,,,2018_Oct_12_1116,60.2510608578,test_experiment,001,pilot_shivani,
4,short,distractor,t2,Y,2,0,0,0,0,1,0,1,0,0,3,3,3,,,,,2018_Oct_12_1116,60.2510608578,test_experiment,001,pilot_shivani,
5,short,distractor,t2,F,2,0,0,0,0,1,0,1,0,0,4,4,4,,,,,2018_Oct_12_1116,60.2510608578,test_experiment,001,pilot_shivani,
6,short,distractor,t2,Y,2,0,0,0,0,1,0,1,0,0,5,5,5,,,,,2018_Oct_12_1116,60.2510608578,test_experiment,001,pilot_shivani,
7,short,distractor,t2,Q,2,0,0,0,0,1,0,1,0,0,6,6,6,,,,,2018_Oct_12_1116,60.2510608578,test_experiment,001,pilot_shivani,
8,short,distractor,t2,C,2,0,0,0,0,1,0,1,0,0,7,7,7,,,,,2018_Oct_12_1116,60.2510608578,test_experiment,001,pilot_shivani,
9,short,distractor,t2,X,2,0,0,0,0,1,0,1,0,0,8,8,8,,,,,2018_Oct_12_1116,60.2510608578,test_experiment,001,pilot_shivani,
10,short,target,t2,3,2,0,0,0,0,1,0,1,0,0,9,9,9,,,,,2018_Oct_12_1116,60.2510608578,test_experiment,001,pilot_shivani,
11,short,distractor,t2,J,2,0,0,0,0,1,0,1,0,0,10,10,10,,,,,2018_Oct_12_1116,60.2510608578,test_experiment,001,pilot_shivani,
12,short,distractor,t2,U,2,0,0,0,0,1,0,1,0,0,11,11,11,,,,,2018_Oct_12_1116,60.2510608578,test_experiment,001,pilot_shivani,
13,short,distractor,t2,I,2,0,0,0,0,1,0,1,0,0,12,12,12,,,,,2018_Oct_12_1116,60.2510608578,test_experiment,001,pilot_shivani,
14,short,target,t2,5,2,0,0,0,0,1,0,1,0,0,13,13,13,,,,,2018_Oct_12_1116,60.2510608578,test_experiment,001,pilot_shivani,
15,short,distractor,t2,B,2,0,0,0,0,1,0,1,0,0,14,14,14,,,,,2018_Oct_12_1116,60.2510608578,test_experiment,001,pilot_shivani,
,,,,,,0,0,0,0,1,0,1,0,,,,,3,0.651019913959,3,2.18532843131,2018_Oct_12_1116,60.2510608578,test_experiment,001,pilot_shivani,
1,long,distractor,t2,X,3,0,0,0,0,2,0,2,0,0,0,0,0,,,,,2018_Oct_12_1116,60.2510608578,test_experiment,001,pilot_shivani,
2,long,distractor,t2,S,3,0,0,0,0,2,0,2,0,0,1,1,1,,,,,2018_Oct_12_1116,60.2510608578,test_experiment,001,pilot_shivani,
3,long,distractor,t2,S,3,0,0,0,0,2,0,2,0,0,2,2,2,,,,,2018_Oct_12_1116,60.2510608578,test_experiment,001,pilot_shivani,
4,long,distractor,t2,M,3,0,0,0,0,2,0,2,0,0,3,3,3,,,,,2018_Oct_12_1116,60.2510608578,test_experiment,001,pilot_shivani,
5,long,distractor,t2,Z,3,0,0,0,0,2,0,2,0,0,4,4,4,,,,,2018_Oct_12_1116,60.2510608578,test_experiment,001,pilot_shivani,
6,long,target,t2,6,3,0,0,0,0,2,0,2,0,0,5,5,5,,,,,2018_Oct_12_1116,60.2510608578,test_experiment,001,pilot_shivani,
7,long,distractor,t2,E,3,0,0,0,0,2,0,2,0,0,6,6,6,,,,,2018_Oct_12_1116,60.2510608578,test_experiment,001,pilot_shivani,
8,long,distractor,t2,W,3,0,0,0,0,2,0,2,0,0,7,7,7,,,,,2018_Oct_12_1116,60.2510608578,test_experiment,001,pilot_shivani,
9,long,distractor,t2,T,3,0,0,0,0,2,0,2,0,0,8,8,8,,,,,2018_Oct_12_1116,60.2510608578,test_experiment,001,pilot_shivani,
10,long,distractor,t2,T,3,0,0,0,0,2,0,2,0,0,9,9,9,,,,,2018_Oct_12_1116,60.2510608578,test_experiment,001,pilot_shivani,
11,long,distractor,t2,M,3,0,0,0,0,2,0,2,0,0,10,10,10,,,,,2018_Oct_12_1116,60.2510608578,test_experiment,001,pilot_shivani,
12,long,distractor,t2,E,3,0,0,0,0,2,0,2,0,0,11,11,11,,,,,2018_Oct_12_1116,60.2510608578,test_experiment,001,pilot_shivani,
13,long,distractor,t2,A,3,0,0,0,0,2,0,2,0,0,12,12,12,,,,,2018_Oct_12_1116,60.2510608578,test_experiment,001,pilot_shivani,
14,long,target,t2,2,3,0,0,0,0,2,0,2,0,0,13,13,13,,,,,2018_Oct_12_1116,60.2510608578,test_experiment,001,pilot_shivani,
15,long,distractor,t2,U,3,0,0,0,0,2,0,2,0,0,14,14,14,,,,,2018_Oct_12_1116,60.2510608578,test_experiment,001,pilot_shivani,
,,,,,,0,0,0,0,2,0,2,0,,,,,6,0.0168566436041,6,0.984553760616,2018_Oct_12_1116,60.2510608578,test_experiment,001,pilot_shivani,
1,short,distractor,t2,U,4,0,0,0,0,3,0,3,0,0,0,0,0,,,,,2018_Oct_12_1116,60.2510608578,test_experiment,001,pilot_shivani,
2,short,distractor,t2,J,4,0,0,0,0,3,0,3,0,0,1,1,1,,,,,2018_Oct_12_1116,60.2510608578,test_experiment,001,pilot_shivani,
3,short,distractor,t2,L,4,0,0,0,0,3,0,3,0,0,2,2,2,,,,,2018_Oct_12_1116,60.2510608578,test_experiment,001,pilot_shivani,
4,short,target,t2,8,4,0,0,0,0,3,0,3,0,0,3,3,3,,,,,2018_Oct_12_1116,60.2510608578,test_experiment,001,pilot_shivani,
5,short,mask,t2, ,4,0,0,0,0,3,0,3,0,0,4,4,4,,,,,2018_Oct_12_1116,60.2510608578,test_experiment,001,pilot_shivani,
6,short,distractor,t2,Q,4,0,0,0,0,3,0,3,0,0,5,5,5,,,,,2018_Oct_12_1116,60.2510608578,test_experiment,001,pilot_shivani,
7,short,distractor,t2,Q,4,0,0,0,0,3,0,3,0,0,6,6,6,,,,,2018_Oct_12_1116,60.2510608578,test_experiment,001,pilot_shivani,
8,short,target,t2,1,4,0,0,0,0,3,0,3,0,0,7,7,7,,,,,2018_Oct_12_1116,60.2510608578,test_experiment,001,pilot_shivani,
9,short,distractor,t2,L,4,0,0,0,0,3,0,3,0,0,8,8,8,,,,,2018_Oct_12_1116,60.2510608578,test_experiment,001,pilot_shivani,
10,short,distractor,t2,H,4,0,0,0,0,3,0,3,0,0,9,9,9,,,,,2018_Oct_12_1116,60.2510608578,test_experiment,001,pilot_shivani,
11,short,distractor,t2,P,4,0,0,0,0,3,0,3,0,0,10,10,10,,,,,2018_Oct_12_1116,60.2510608578,test_experiment,001,pilot_shivani,
12,short,distractor,t2,Y,4,0,0,0,0,3,0,3,0,0,11,11,11,,,,,2018_Oct_12_1116,60.2510608578,test_experiment,001,pilot_shivani,
13,short,distractor,t2,J,4,0,0,0,0,3,0,3,0,0,12,12,12,,,,,2018_Oct_12_1116,60.2510608578,test_experiment,001,pilot_shivani,
14,short,distractor,t2,W,4,0,0,0,0,3,0,3,0,0,13,13,13,,,,,2018_Oct_12_1116,60.2510608578,test_experiment,001,pilot_shivani,
15,short,distractor,t2,W,4,0,0,0,0,3,0,3,0,0,14,14,14,,,,,2018_Oct_12_1116,60.2510608578,test_experiment,001,pilot_shivani,
,,,,,,0,0,0,0,3,0,3,0,,,,,8,0.568661504192,1,0.401334505528,2018_Oct_12_1116,60.2510608578,test_experiment,001,pilot_shivani,
1,short,distractor,t2,X,5,0,0,0,0,4,0,4,0,0,0,0,0,,,,,2018_Oct_12_1116,60.2510608578,test_experiment,001,pilot_shivani,
2,short,distractor,t2,O,5,0,0,0,0,4,0,4,0,0,1,1,1,,,,,2018_Oct_12_1116,60.2510608578,test_experiment,001,pilot_shivani,
3,short,target,t2,3,5,0,0,0,0,4,0,4,0,0,2,2,2,,,,,2018_Oct_12_1116,60.2510608578,test_experiment,001,pilot_shivani,
4,short,distractor,t2,V,5,0,0,0,0,4,0,4,0,0,3,3,3,,,,,2018_Oct_12_1116,60.2510608578,test_experiment,001,pilot_shivani,
5,short,distractor,t2,E,5,0,0,0,0,4,0,4,0,0,4,4,4,,,,,2018_Oct_12_1116,60.2510608578,test_experiment,001,pilot_shivani,
6,short,distractor,t2,E,5,0,0,0,0,4,0,4,0,0,5,5,5,,,,,2018_Oct_12_1116,60.2510608578,test_experiment,001,pilot_shivani,
7,short,target,t2,7,5,0,0,0,0,4,0,4,0,0,6,6,6,,,,,2018_Oct_12_1116,60.2510608578,test_experiment,001,pilot_shivani,
8,short,distractor,t2,F,5,0,0,0,0,4,0,4,0,0,7,7,7,,,,,2018_Oct_12_1116,60.2510608578,test_experiment,001,pilot_shivani,
9,short,distractor,t2,Q,5,0,0,0,0,4,0,4,0,0,8,8,8,,,,,2018_Oct_12_1116,60.2510608578,test_experiment,001,pilot_shivani,
10,short,distractor,t2,E,5,0,0,0,0,4,0,4,0,0,9,9,9,,,,,2018_Oct_12_1116,60.2510608578,test_experiment,001,pilot_shivani,
11,short,distractor,t2,M,5,0,0,0,0,4,0,4,0,0,10,10,10,,,,,2018_Oct_12_1116,60.2510608578,test_experiment,001,pilot_shivani,
12,short,distractor,t2,O,5,0,0,0,0,4,0,4,0,0,11,11,11,,,,,2018_Oct_12_1116,60.2510608578,test_experiment,001,pilot_shivani,
13,short,distractor,t2,X,5,0,0,0,0,4,0,4,0,0,12,12,12,,,,,2018_Oct_12_1116,60.2510608578,test_experiment,001,pilot_shivani,
14,short,distractor,t2,M,5,0,0,0,0,4,0,4,0,0,13,13,13,,,,,2018_Oct_12_1116,60.2510608578,test_experiment,001,pilot_shivani,
15,short,distractor,t2,E,5,0,0,0,0,4,0,4,0,0,14,14,14,,,,,2018_Oct_12_1116,60.2510608578,test_experiment,001,pilot_shivani,
16,short,distractor,t2,N,5,0,0,0,0,4,0,4,0,0,15,15,15,,,,,2018_Oct_12_1116,60.2510608578,test_experiment,001,pilot_shivani,
17,short,distractor,t2,J,5,0,0,0,0,4,0,4,0,0,16,16,16,,,,,2018_Oct_12_1116,60.2510608578,test_experiment,001,pilot_shivani,
,,,,,,0,0,0,0,4,0,4,0,,,,,3,0.317761898274,3,1.13473205932,2018_Oct_12_1116,60.2510608578,test_experiment,001,pilot_shivani,
1,short,distractor,t2,R,6,0,0,0,0,5,0,5,0,0,0,0,0,,,,,2018_Oct_12_1116,60.2510608578,test_experiment,001,pilot_shivani,
2,short,distractor,t2,A,6,0,0,0,0,5,0,5,0,0,1,1,1,,,,,2018_Oct_12_1116,60.2510608578,test_experiment,001,pilot_shivani,
3,short,target,t2,5,6,0,0,0,0,5,0,5,0,0,2,2,2,,,,,2018_Oct_12_1116,60.2510608578,test_experiment,001,pilot_shivani,
4,short,distractor,t2,D,6,0,0,0,0,5,0,5,0,0,3,3,3,,,,,2018_Oct_12_1116,60.2510608578,test_experiment,001,pilot_shivani,
5,short,distractor,t2,M,6,0,0,0,0,5,0,5,0,0,4,4,4,,,,,2018_Oct_12_1116,60.2510608578,test_experiment,001,pilot_shivani,
6,short,distractor,t2,Y,6,0,0,0,0,5,0,5,0,0,5,5,5,,,,,2018_Oct_12_1116,60.2510608578,test_experiment,001,pilot_shivani,
7,short,target,t2,5,6,0,0,0,0,5,0,5,0,0,6,6,6,,,,,2018_Oct_12_1116,60.2510608578,test_experiment,001,pilot_shivani,
8,short,distractor,t2,S,6,0,0,0,0,5,0,5,0,0,7,7,7,,,,,2018_Oct_12_1116,60.2510608578,test_experiment,001,pilot_shivani,
9,short,distractor,t2,E,6,0,0,0,0,5,0,5,0,0,8,8,8,,,,,2018_Oct_12_1116,60.2510608578,test_experiment,001,pilot_shivani,
10,short,distractor,t2,K,6,0,0,0,0,5,0,5,0,0,9,9,9,,,,,2018_Oct_12_1116,60.2510608578,test_experiment,001,pilot_shivani,
11,short,distractor,t2,Q,6,0,0,0,0,5,0,5,0,0,10,10,10,,,,,2018_Oct_12_1116,60.2510608578,test_experiment,001,pilot_shivani,
12,short,distractor,t2,V,6,0,0,0,0,5,0,5,0,0,11,11,11,,,,,2018_Oct_12_1116,60.2510608578,test_experiment,001,pilot_shivani,
13,short,distractor,t2,R,6,0,0,0,0,5,0,5,0,0,12,12,12,,,,,2018_Oct_12_1116,60.2510608578,test_experiment,001,pilot_shivani,
14,short,mask,t2, ,6,0,0,0,0,5,0,5,0,0,13,13,13,,,,,2018_Oct_12_1116,60.2510608578,test_experiment,001,pilot_shivani,
15,short,distractor,t2,C,6,0,0,0,0,5,0,5,0,0,14,14,14,,,,,2018_Oct_12_1116,60.2510608578,test_experiment,001,pilot_shivani,
16,short,distractor,t2,A,6,0,0,0,0,5,0,5,0,0,15,15,15,,,,,2018_Oct_12_1116,60.2510608578,test_experiment,001,pilot_shivani,
17,short,distractor,t2,G,6,0,0,0,0,5,0,5,0,0,16,16,16,,,,,2018_Oct_12_1116,60.2510608578,test_experiment,001,pilot_shivani,
,,,,,,0,0,0,0,5,0,5,0,,,,,5,1.90105206415,5,2.2167278023,2018_Oct_12_1116,60.2510608578,test_experiment,001,pilot_shivani,
1,short,distractor,t1,D,7,0,0,0,0,6,0,6,0,0,0,0,0,,,,,2018_Oct_12_1116,60.2510608578,test_experiment,001,pilot_shivani,
2,short,distractor,t1,X,7,0,0,0,0,6,0,6,0,0,1,1,1,,,,,2018_Oct_12_1116,60.2510608578,test_experiment,001,pilot_shivani,
3,short,distractor,t1,T,7,0,0,0,0,6,0,6,0,0,2,2,2,,,,,2018_Oct_12_1116,60.2510608578,test_experiment,001,pilot_shivani,
4,short,target,t1,5,7,0,0,0,0,6,0,6,0,0,3,3,3,,,,,2018_Oct_12_1116,60.2510608578,test_experiment,001,pilot_shivani,
5,short,distractor,t1,U,7,0,0,0,0,6,0,6,0,0,4,4,4,,,,,2018_Oct_12_1116,60.2510608578,test_experiment,001,pilot_shivani,
6,short,distractor,t1,R,7,0,0,0,0,6,0,6,0,0,5,5,5,,,,,2018_Oct_12_1116,60.2510608578,test_experiment,001,pilot_shivani,
7,short,distractor,t1,A,7,0,0,0,0,6,0,6,0,0,6,6,6,,,,,2018_Oct_12_1116,60.2510608578,test_experiment,001,pilot_shivani,
8,short,mask,t1, ,7,0,0,0,0,6,0,6,0,0,7,7,7,,,,,2018_Oct_12_1116,60.2510608578,test_experiment,001,pilot_shivani,
9,short,distractor,t1,H,7,0,0,0,0,6,0,6,0,0,8,8,8,,,,,2018_Oct_12_1116,60.2510608578,test_experiment,001,pilot_shivani,
10,short,distractor,t1,I,7,0,0,0,0,6,0,6,0,0,9,9,9,,,,,2018_Oct_12_1116,60.2510608578,test_experiment,001,pilot_shivani,
11,short,distractor,t1,H,7,0,0,0,0,6,0,6,0,0,10,10,10,,,,,2018_Oct_12_1116,60.2510608578,test_experiment,001,pilot_shivani,
12,short,distractor,t1,Q,7,0,0,0,0,6,0,6,0,0,11,11,11,,,,,2018_Oct_12_1116,60.2510608578,test_experiment,001,pilot_shivani,
13,short,distractor,t1,P,7,0,0,0,0,6,0,6,0,0,12,12,12,,,,,2018_Oct_12_1116,60.2510608578,test_experiment,001,pilot_shivani,
14,short,distractor,t1,N,7,0,0,0,0,6,0,6,0,0,13,13,13,,,,,2018_Oct_12_1116,60.2510608578,test_experiment,001,pilot_shivani,
15,short,distractor,t1,A,7,0,0,0,0,6,0,6,0,0,14,14,14,,,,,2018_Oct_12_1116,60.2510608578,test_experiment,001,pilot_shivani,
16,short,distractor,t1,W,7,0,0,0,0,6,0,6,0,0,15,15,15,,,,,2018_Oct_12_1116,60.2510608578,test_experiment,001,pilot_shivani,
17,short,distractor,t1,P,7,0,0,0,0,6,0,6,0,0,16,16,16,,,,,2018_Oct_12_1116,60.2510608578,test_experiment,001,pilot_shivani,
,,,,,,0,0,0,0,6,0,6,0,,,,,5,1.28431212297,5,0.918539092876,2018_Oct_12_1116,60.2510608578,test_experiment,001,pilot_shivani,
1,short,distractor,t1,C,8,0,0,0,0,7,0,7,0,0,0,0,0,,,,,2018_Oct_12_1116,60.2510608578,test_experiment,001,pilot_shivani,
2,short,distractor,t1,I,8,0,0,0,0,7,0,7,0,0,1,1,1,,,,,2018_Oct_12_1116,60.2510608578,test_experiment,001,pilot_shivani,
3,short,target,t1,8,8,0,0,0,0,7,0,7,0,0,2,2,2,,,,,2018_Oct_12_1116,60.2510608578,test_experiment,001,pilot_shivani,
4,short,distractor,t1,U,8,0,0,0,0,7,0,7,0,0,3,3,3,,,,,2018_Oct_12_1116,60.2510608578,test_experiment,001,pilot_shivani,
5,short,distractor,t1,P,8,0,0,0,0,7,0,7,0,0,4,4,4,,,,,2018_Oct_12_1116,60.2510608578,test_experiment,001,pilot_shivani,
6,short,distractor,t1,D,8,0,0,0,0,7,0,7,0,0,5,5,5,,,,,2018_Oct_12_1116,60.2510608578,test_experiment,001,pilot_shivani,
7,short,mask,t1, ,8,0,0,0,0,7,0,7,0,0,6,6,6,,,,,2018_Oct_12_1116,60.2510608578,test_experiment,001,pilot_shivani,
8,short,distractor,t1,U,8,0,0,0,0,7,0,7,0,0,7,7,7,,,,,2018_Oct_12_1116,60.2510608578,test_experiment,001,pilot_shivani,
9,short,distractor,t1,W,8,0,0,0,0,7,0,7,0,0,8,8,8,,,,,2018_Oct_12_1116,60.2510608578,test_experiment,001,pilot_shivani,
10,short,distractor,t1,D,8,0,0,0,0,7,0,7,0,0,9,9,9,,,,,2018_Oct_12_1116,60.2510608578,test_experiment,001,pilot_shivani,
11,short,distractor,t1,I,8,0,0,0,0,7,0,7,0,0,10,10,10,,,,,2018_Oct_12_1116,60.2510608578,test_experiment,001,pilot_shivani,
12,short,distractor,t1,P,8,0,0,0,0,7,0,7,0,0,11,11,11,,,,,2018_Oct_12_1116,60.2510608578,test_experiment,001,pilot_shivani,
13,short,distractor,t1,P,8,0,0,0,0,7,0,7,0,0,12,12,12,,,,,2018_Oct_12_1116,60.2510608578,test_experiment,001,pilot_shivani,
14,short,distractor,t1,Z,8,0,0,0,0,7,0,7,0,0,13,13,13,,,,,2018_Oct_12_1116,60.2510608578,test_experiment,001,pilot_shivani,
15,short,distractor,t1,J,8,0,0,0,0,7,0,7,0,0,14,14,14,,,,,2018_Oct_12_1116,60.2510608578,test_experiment,001,pilot_shivani,
16,short,distractor,t1,S,8,0,0,0,0,7,0,7,0,0,15,15,15,,,,,2018_Oct_12_1116,60.2510608578,test_experiment,001,pilot_shivani,
,,,,,,0,0,0,0,7,0,7,0,,,,,8,1.53460478038,8,0.467930882354,2018_Oct_12_1116,60.2510608578,test_experiment,001,pilot_shivani,
1,long,distractor,t2,Q,9,0,0,0,0,8,0,8,0,0,0,0,0,,,,,2018_Oct_12_1116,60.2510608578,test_experiment,001,pilot_shivani,
2,long,distractor,t2,E,9,0,0,0,0,8,0,8,0,0,1,1,1,,,,,2018_Oct_12_1116,60.2510608578,test_experiment,001,pilot_shivani,
3,long,distractor,t2,M,9,0,0,0,0,8,0,8,0,0,2,2,2,,,,,2018_Oct_12_1116,60.2510608578,test_experiment,001,pilot_shivani,
4,long,distractor,t2,M,9,0,0,0,0,8,0,8,0,0,3,3,3,,,,,2018_Oct_12_1116,60.2510608578,test_experiment,001,pilot_shivani,
5,long,target,t2,8,9,0,0,0,0,8,0,8,0,0,4,4,4,,,,,2018_Oct_12_1116,60.2510608578,test_experiment,001,pilot_shivani,
6,long,distractor,t2,P,9,0,0,0,0,8,0,8,0,0,5,5,5,,,,,2018_Oct_12_1116,60.2510608578,test_experiment,001,pilot_shivani,
7,long,distractor,t2,Y,9,0,0,0,0,8,0,8,0,0,6,6,6,,,,,2018_Oct_12_1116,60.2510608578,test_experiment,001,pilot_shivani,
8,long,distractor,t2,S,9,0,0,0,0,8,0,8,0,0,7,7,7,,,,,2018_Oct_12_1116,60.2510608578,test_experiment,001,pilot_shivani,
9,long,distractor,t2,J,9,0,0,0,0,8,0,8,0,0,8,8,8,,,,,2018_Oct_12_1116,60.2510608578,test_experiment,001,pilot_shivani,
10,long,distractor,t2,E,9,0,0,0,0,8,0,8,0,0,9,9,9,,,,,2018_Oct_12_1116,60.2510608578,test_experiment,001,pilot_shivani,
11,long,distractor,t2,I,9,0,0,0,0,8,0,8,0,0,10,10,10,,,,,2018_Oct_12_1116,60.2510608578,test_experiment,001,pilot_shivani,
12,long,distractor,t2,N,9,0,0,0,0,8,0,8,0,0,11,11,11,,,,,2018_Oct_12_1116,60.2510608578,test_experiment,001,pilot_shivani,
13,long,target,t2,1,9,0,0,0,0,8,0,8,0,0,12,12,12,,,,,2018_Oct_12_1116,60.2510608578,test_experiment,001,pilot_shivani,
14,long,distractor,t2,K,9,0,0,0,0,8,0,8,0,0,13,13,13,,,,,2018_Oct_12_1116,60.2510608578,test_experiment,001,pilot_shivani,
15,long,distractor,t2,M,9,0,0,0,0,8,0,8,0,0,14,14,14,,,,,2018_Oct_12_1116,60.2510608578,test_experiment,001,pilot_shivani,
,,,,,,0,0,0,0,8,0,8,0,,,,,8,1.68427077844,8,0.817781428806,2018_Oct_12_1116,60.2510608578,test_experiment,001,pilot_shivani,
1,short,distractor,t2,C,10,0,0,0,0,9,0,9,0,0,0,0,0,,,,,2018_Oct_12_1116,60.2510608578,test_experiment,001,pilot_shivani,
2,short,distractor,t2,X,10,0,0,0,0,9,0,9,0,0,1,1,1,,,,,2018_Oct_12_1116,60.2510608578,test_experiment,001,pilot_shivani,
3,short,distractor,t2,K,10,0,0,0,0,9,0,9,0,0,2,2,2,,,,,2018_Oct_12_1116,60.2510608578,test_experiment,001,pilot_shivani,
4,short,distractor,t2,C,10,0,0,0,0,9,0,9,0,0,3,3,3,,,,,2018_Oct_12_1116,60.2510608578,test_experiment,001,pilot_shivani,
5,short,target,t2,8,10,0,0,0,0,9,0,9,0,0,4,4,4,,,,,2018_Oct_12_1116,60.2510608578,test_experiment,001,pilot_shivani,
6,short,mask,t2, ,10,0,0,0,0,9,0,9,0,0,5,5,5,,,,,2018_Oct_12_1116,60.2510608578,test_experiment,001,pilot_shivani,
7,short,distractor,t2,X,10,0,0,0,0,9,0,9,0,0,6,6,6,,,,,2018_Oct_12_1116,60.2510608578,test_experiment,001,pilot_shivani,
8,short,distractor,t2,V,10,0,0,0,0,9,0,9,0,0,7,7,7,,,,,2018_Oct_12_1116,60.2510608578,test_experiment,001,pilot_shivani,
9,short,target,t2,7,10,0,0,0,0,9,0,9,0,0,8,8,8,,,,,2018_Oct_12_1116,60.2510608578,test_experiment,001,pilot_shivani,
10,short,distractor,t2,Z,10,0,0,0,0,9,0,9,0,0,9,9,9,,,,,2018_Oct_12_1116,60.2510608578,test_experiment,001,pilot_shivani,
11,short,distractor,t2,V,10,0,0,0,0,9,0,9,0,0,10,10,10,,,,,2018_Oct_12_1116,60.2510608578,test_experiment,001,pilot_shivani,
12,short,distractor,t2,S,10,0,0,0,0,9,0,9,0,0,11,11,11,,,,,2018_Oct_12_1116,60.2510608578,test_experiment,001,pilot_shivani,
13,short,distractor,t2,L,10,0,0,0,0,9,0,9,0,0,12,12,12,,,,,2018_Oct_12_1116,60.2510608578,test_experiment,001,pilot_shivani,
14,short,distractor,t2,X,10,0,0,0,0,9,0,9,0,0,13,13,13,,,,,2018_Oct_12_1116,60.2510608578,test_experiment,001,pilot_shivani,
15,short,distractor,t2,S,10,0,0,0,0,9,0,9,0,0,14,14,14,,,,,2018_Oct_12_1116,60.2510608578,test_experiment,001,pilot_shivani,
16,short,distractor,t2,O,10,0,0,0,0,9,0,9,0,0,15,15,15,,,,,2018_Oct_12_1116,60.2510608578,test_experiment,001,pilot_shivani,
17,short,distractor,t2,T,10,0,0,0,0,9,0,9,0,0,16,16,16,,,,,2018_Oct_12_1116,60.2510608578,test_experiment,001,pilot_shivani,
,,,,,,0,0,0,0,9,0,9,0,,,,,8,0.817261616467,7,0.684680017876,2018_Oct_12_1116,60.2510608578,test_experiment,001,pilot_shivani,
1,long,distractor,t2,P,11,0,0,0,0,10,0,10,0,0,0,0,0,,,,,2018_Oct_12_1116,60.2510608578,test_experiment,001,pilot_shivani,
2,long,distractor,t2,Q,11,0,0,0,0,10,0,10,0,0,1,1,1,,,,,2018_Oct_12_1116,60.2510608578,test_experiment,001,pilot_shivani,
3,long,distractor,t2,Z,11,0,0,0,0,10,0,10,0,0,2,2,2,,,,,2018_Oct_12_1116,60.2510608578,test_experiment,001,pilot_shivani,
4,long,distractor,t2,P,11,0,0,0,0,10,0,10,0,0,3,3,3,,,,,2018_Oct_12_1116,60.2510608578,test_experiment,001,pilot_shivani,
5,long,target,t2,7,11,0,0,0,0,10,0,10,0,0,4,4,4,,,,,2018_Oct_12_1116,60.2510608578,test_experiment,001,pilot_shivani,
6,long,distractor,t2,I,11,0,0,0,0,10,0,10,0,0,5,5,5,,,,,2018_Oct_12_1116,60.2510608578,test_experiment,001,pilot_shivani,
7,long,distractor,t2,H,11,0,0,0,0,10,0,10,0,0,6,6,6,,,,,2018_Oct_12_1116,60.2510608578,test_experiment,001,pilot_shivani,
8,long,distractor,t2,I,11,0,0,0,0,10,0,10,0,0,7,7,7,,,,,2018_Oct_12_1116,60.2510608578,test_experiment,001,pilot_shivani,
9,long,distractor,t2,I,11,0,0,0,0,10,0,10,0,0,8,8,8,,,,,2018_Oct_12_1116,60.2510608578,test_experiment,001,pilot_shivani,
10,long,distractor,t2,L,11,0,0,0,0,10,0,10,0,0,9,9,9,,,,,2018_Oct_12_1116,60.2510608578,test_experiment,001,pilot_shivani,
11,long,distractor,t2,D,11,0,0,0,0,10,0,10,0,0,10,10,10,,,,,2018_Oct_12_1116,60.2510608578,test_experiment,001,pilot_shivani,
12,long,distractor,t2,A,11,0,0,0,0,10,0,10,0,0,11,11,11,,,,,2018_Oct_12_1116,60.2510608578,test_experiment,001,pilot_shivani,
13,long,target,t2,3,11,0,0,0,0,10,0,10,0,0,12,12,12,,,,,2018_Oct_12_1116,60.2510608578,test_experiment,001,pilot_shivani,
14,long,distractor,t2,O,11,0,0,0,0,10,0,10,0,0,13,13,13,,,,,2018_Oct_12_1116,60.2510608578,test_experiment,001,pilot_shivani,
15,long,distractor,t2,Q,11,0,0,0,0,10,0,10,0,0,14,14,14,,,,,2018_Oct_12_1116,60.2510608578,test_experiment,001,pilot_shivani,
16,long,distractor,t2,X,11,0,0,0,0,10,0,10,0,0,15,15,15,,,,,2018_Oct_12_1116,60.2510608578,test_experiment,001,pilot_shivani,
17,long,distractor,t2,H,11,0,0,0,0,10,0,10,0,0,16,16,16,,,,,2018_Oct_12_1116,60.2510608578,test_experiment,001,pilot_shivani,
18,long,distractor,t2,V,11,0,0,0,0,10,0,10,0,0,17,17,17,,,,,2018_Oct_12_1116,60.2510608578,test_experiment,001,pilot_shivani,
,,,,,,0,0,0,0,10,0,10,0,,,,,3,0.367958946154,3,1.50181693945,2018_Oct_12_1116,60.2510608578,test_experiment,001,pilot_shivani,
1,short,distractor,t1,B,12,0,0,0,0,11,0,11,0,0,0,0,0,,,,,2018_Oct_12_1116,60.2510608578,test_experiment,001,pilot_shivani,
2,short,distractor,t1,V,12,0,0,0,0,11,0,11,0,0,1,1,1,,,,,2018_Oct_12_1116,60.2510608578,test_experiment,001,pilot_shivani,
3,short,distractor,t1,C,12,0,0,0,0,11,0,11,0,0,2,2,2,,,,,2018_Oct_12_1116,60.2510608578,test_experiment,001,pilot_shivani,
4,short,distractor,t1,A,12,0,0,0,0,11,0,11,0,0,3,3,3,,,,,2018_Oct_12_1116,60.2510608578,test_experiment,001,pilot_shivani,
5,short,distractor,t1,F,12,0,0,0,0,11,0,11,0,0,4,4,4,,,,,2018_Oct_12_1116,60.2510608578,test_experiment,001,pilot_shivani,
6,short,target,t1,3,12,0,0,0,0,11,0,11,0,0,5,5,5,,,,,2018_Oct_12_1116,60.2510608578,test_experiment,001,pilot_shivani,
7,short,distractor,t1,R,12,0,0,0,0,11,0,11,0,0,6,6,6,,,,,2018_Oct_12_1116,60.2510608578,test_experiment,001,pilot_shivani,
8,short,distractor,t1,Z,12,0,0,0,0,11,0,11,0,0,7,7,7,,,,,2018_Oct_12_1116,60.2510608578,test_experiment,001,pilot_shivani,
9,short,distractor,t1,Y,12,0,0,0,0,11,0,11,0,0,8,8,8,,,,,2018_Oct_12_1116,60.2510608578,test_experiment,001,pilot_shivani,
10,short,mask,t1, ,12,0,0,0,0,11,0,11,0,0,9,9,9,,,,,2018_Oct_12_1116,60.2510608578,test_experiment,001,pilot_shivani,
11,short,distractor,t1,J,12,0,0,0,0,11,0,11,0,0,10,10,10,,,,,2018_Oct_12_1116,60.2510608578,test_experiment,001,pilot_shivani,
12,short,distractor,t1,Y,12,0,0,0,0,11,0,11,0,0,11,11,11,,,,,2018_Oct_12_1116,60.2510608578,test_experiment,001,pilot_shivani,
13,short,distractor,t1,S,12,0,0,0,0,11,0,11,0,0,12,12,12,,,,,2018_Oct_12_1116,60.2510608578,test_experiment,001,pilot_shivani,
14,short,distractor,t1,M,12,0,0,0,0,11,0,11,0,0,13,13,13,,,,,2018_Oct_12_1116,60.2510608578,test_experiment,001,pilot_shivani,
15,short,distractor,t1,Q,12,0,0,0,0,11,0,11,0,0,14,14,14,,,,,2018_Oct_12_1116,60.2510608578,test_experiment,001,pilot_shivani,
16,short,distractor,t1,D,12,0,0,0,0,11,0,11,0,0,15,15,15,,,,,2018_Oct_12_1116,60.2510608578,test_experiment,001,pilot_shivani,
17,short,distractor,t1,T,12,0,0,0,0,11,0,11,0,0,16,16,16,,,,,2018_Oct_12_1116,60.2510608578,test_experiment,001,pilot_shivani,
,,,,,,0,0,0,0,11,0,11,0,,,,,3,1.0843066544,3,0.718503577402,2018_Oct_12_1116,60.2510608578,test_experiment,001,pilot_shivani,
1,short,distractor,t2,W,13,0,0,0,0,12,0,12,0,0,0,0,0,,,,,2018_Oct_12_1116,60.2510608578,test_experiment,001,pilot_shivani,
2,short,distractor,t2,N,13,0,0,0,0,12,0,12,0,0,1,1,1,,,,,2018_Oct_12_1116,60.2510608578,test_experiment,001,pilot_shivani,
3,short,distractor,t2,B,13,0,0,0,0,12,0,12,0,0,2,2,2,,,,,2018_Oct_12_1116,60.2510608578,test_experiment,001,pilot_shivani,
4,short,distractor,t2,Q,13,0,0,0,0,12,0,12,0,0,3,3,3,,,,,2018_Oct_12_1116,60.2510608578,test_experiment,001,pilot_shivani,
5,short,distractor,t2,Z,13,0,0,0,0,12,0,12,0,0,4,4,4,,,,,2018_Oct_12_1116,60.2510608578,test_experiment,001,pilot_shivani,
6,short,mask,t2, ,13,0,0,0,0,12,0,12,0,0,5,5,5,,,,,2018_Oct_12_1116,60.2510608578,test_experiment,001,pilot_shivani,
7,short,distractor,t2,S,13,0,0,0,0,12,0,12,0,0,6,6,6,,,,,2018_Oct_12_1116,60.2510608578,test_experiment,001,pilot_shivani,
8,short,target,t2,5,13,0,0,0,0,12,0,12,0,0,7,7,7,,,,,2018_Oct_12_1116,60.2510608578,test_experiment,001,pilot_shivani,
9,short,distractor,t2,J,13,0,0,0,0,12,0,12,0,0,8,8,8,,,,,2018_Oct_12_1116,60.2510608578,test_experiment,001,pilot_shivani,
10,short,distractor,t2,D,13,0,0,0,0,12,0,12,0,0,9,9,9,,,,,2018_Oct_12_1116,60.2510608578,test_experiment,001,pilot_shivani,
11,short,distractor,t2,Y,13,0,0,0,0,12,0,12,0,0,10,10,10,,,,,2018_Oct_12_1116,60.2510608578,test_experiment,001,pilot_shivani,
12,short,target,t2,3,13,0,0,0,0,12,0,12,0,0,11,11,11,,,,,2018_Oct_12_1116,60.2510608578,test_experiment,001,pilot_shivani,
13,short,distractor,t2,T,13,0,0,0,0,12,0,12,0,0,12,12,12,,,,,2018_Oct_12_1116,60.2510608578,test_experiment,001,pilot_shivani,
14,short,distractor,t2,O,13,0,0,0,0,12,0,12,0,0,13,13,13,,,,,2018_Oct_12_1116,60.2510608578,test_experiment,001,pilot_shivani,
15,short,distractor,t2,S,13,0,0,0,0,12,0,12,0,0,14,14,14,,,,,2018_Oct_12_1116,60.2510608578,test_experiment,001,pilot_shivani,
16,short,distractor,t2,B,13,0,0,0,0,12,0,12,0,0,15,15,15,,,,,2018_Oct_12_1116,60.2510608578,test_experiment,001,pilot_shivani,
17,short,distractor,t2,L,13,0,0,0,0,12,0,12,0,0,16,16,16,,,,,2018_Oct_12_1116,60.2510608578,test_experiment,001,pilot_shivani,
,,,,,,0,0,0,0,12,0,12,0,,,,,5,0.617367321625,5,2.00091222569,2018_Oct_12_1116,60.2510608578,test_experiment,001,pilot_shivani,
1,short,distractor,t2,X,14,0,0,0,0,13,0,13,0,0,0,0,0,,,,,2018_Oct_12_1116,60.2510608578,test_experiment,001,pilot_shivani,
2,short,distractor,t2,X,14,0,0,0,0,13,0,13,0,0,1,1,1,,,,,2018_Oct_12_1116,60.2510608578,test_experiment,001,pilot_shivani,
3,short,distractor,t2,V,14,0,0,0,0,13,0,13,0,0,2,2,2,,,,,2018_Oct_12_1116,60.2510608578,test_experiment,001,pilot_shivani,
4,short,target,t2,2,14,0,0,0,0,13,0,13,0,0,3,3,3,,,,,2018_Oct_12_1116,60.2510608578,test_experiment,001,pilot_shivani,
5,short,distractor,t2,U,14,0,0,0,0,13,0,13,0,0,4,4,4,,,,,2018_Oct_12_1116,60.2510608578,test_experiment,001,pilot_shivani,
6,short,distractor,t2,Z,14,0,0,0,0,13,0,13,0,0,5,5,5,,,,,2018_Oct_12_1116,60.2510608578,test_experiment,001,pilot_shivani,
7,short,distractor,t2,R,14,0,0,0,0,13,0,13,0,0,6,6,6,,,,,2018_Oct_12_1116,60.2510608578,test_experiment,001,pilot_shivani,
8,short,target,t2,1,14,0,0,0,0,13,0,13,0,0,7,7,7,,,,,2018_Oct_12_1116,60.2510608578,test_experiment,001,pilot_shivani,
9,short,distractor,t2,U,14,0,0,0,0,13,0,13,0,0,8,8,8,,,,,2018_Oct_12_1116,60.2510608578,test_experiment,001,pilot_shivani,
10,short,distractor,t2,K,14,0,0,0,0,13,0,13,0,0,9,9,9,,,,,2018_Oct_12_1116,60.2510608578,test_experiment,001,pilot_shivani,
11,short,distractor,t2,P,14,0,0,0,0,13,0,13,0,0,10,10,10,,,,,2018_Oct_12_1116,60.2510608578,test_experiment,001,pilot_shivani,
12,short,distractor,t2,K,14,0,0,0,0,13,0,13,0,0,11,11,11,,,,,2018_Oct_12_1116,60.2510608578,test_experiment,001,pilot_shivani,
13,short,distractor,t2,O,14,0,0,0,0,13,0,13,0,0,12,12,12,,,,,2018_Oct_12_1116,60.2510608578,test_experiment,001,pilot_shivani,
14,short,distractor,t2,A,14,0,0,0,0,13,0,13,0,0,13,13,13,,,,,2018_Oct_12_1116,60.2510608578,test_experiment,001,pilot_shivani,
15,short,distractor,t2,G,14,0,0,0,0,13,0,13,0,0,14,14,14,,,,,2018_Oct_12_1116,60.2510608578,test_experiment,001,pilot_shivani,
16,short,distractor,t2,Y,14,0,0,0,0,13,0,13,0,0,15,15,15,,,,,2018_Oct_12_1116,60.2510608578,test_experiment,001,pilot_shivani,
17,short,distractor,t2,M,14,0,0,0,0,13,0,13,0,0,16,16,16,,,,,2018_Oct_12_1116,60.2510608578,test_experiment,001,pilot_shivani,
,,,,,,0,0,0,0,13,0,13,0,,,,,2,0.417342923582,1,0.601036800304,2018_Oct_12_1116,60.2510608578,test_experiment,001,pilot_shivani,
1,long,target,t2,8,15,0,0,0,0,14,0,14,0,0,0,0,0,,,,,2018_Oct_12_1116,60.2510608578,test_experiment,001,pilot_shivani,
2,long,distractor,t2,T,15,0,0,0,0,14,0,14,0,0,1,1,1,,,,,2018_Oct_12_1116,60.2510608578,test_experiment,001,pilot_shivani,
3,long,distractor,t2,Q,15,0,0,0,0,14,0,14,0,0,2,2,2,,,,,2018_Oct_12_1116,60.2510608578,test_experiment,001,pilot_shivani,
4,long,distractor,t2,C,15,0,0,0,0,14,0,14,0,0,3,3,3,,,,,2018_Oct_12_1116,60.2510608578,test_experiment,001,pilot_shivani,
5,long,distractor,t2,O,15,0,0,0,0,14,0,14,0,0,4,4,4,,,,,2018_Oct_12_1116,60.2510608578,test_experiment,001,pilot_shivani,
6,long,distractor,t2,C,15,0,0,0,0,14,0,14,0,0,5,5,5,,,,,2018_Oct_12_1116,60.2510608578,test_experiment,001,pilot_shivani,
7,long,distractor,t2,I,15,0,0,0,0,14,0,14,0,0,6,6,6,,,,,2018_Oct_12_1116,60.2510608578,test_experiment,001,pilot_shivani,
8,long,distractor,t2,C,15,0,0,0,0,14,0,14,0,0,7,7,7,,,,,2018_Oct_12_1116,60.2510608578,test_experiment,001,pilot_shivani,
9,long,target,t2,1,15,0,0,0,0,14,0,14,0,0,8,8,8,,,,,2018_Oct_12_1116,60.2510608578,test_experiment,001,pilot_shivani,
10,long,distractor,t2,J,15,0,0,0,0,14,0,14,0,0,9,9,9,,,,,2018_Oct_12_1116,60.2510608578,test_experiment,001,pilot_shivani,
11,long,distractor,t2,G,15,0,0,0,0,14,0,14,0,0,10,10,10,,,,,2018_Oct_12_1116,60.2510608578,test_experiment,001,pilot_shivani,
12,long,distractor,t2,O,15,0,0,0,0,14,0,14,0,0,11,11,11,,,,,2018_Oct_12_1116,60.2510608578,test_experiment,001,pilot_shivani,
13,long,mask,t2, ,15,0,0,0,0,14,0,14,0,0,12,12,12,,,,,2018_Oct_12_1116,60.2510608578,test_experiment,001,pilot_shivani,
14,long,distractor,t2,S,15,0,0,0,0,14,0,14,0,0,13,13,13,,,,,2018_Oct_12_1116,60.2510608578,test_experiment,001,pilot_shivani,
15,long,distractor,t2,R,15,0,0,0,0,14,0,14,0,0,14,14,14,,,,,2018_Oct_12_1116,60.2510608578,test_experiment,001,pilot_shivani,
16,long,distractor,t2,V,15,0,0,0,0,14,0,14,0,0,15,15,15,,,,,2018_Oct_12_1116,60.2510608578,test_experiment,001,pilot_shivani,
,,,,,,0,0,0,0,14,0,14,0,,,,,8,1.06722075259,1,0.651853115996,2018_Oct_12_1116,60.2510608578,test_experiment,001,pilot_shivani,
1,short,distractor,t1,D,16,0,0,0,0,15,0,15,0,0,0,0,0,,,,,2018_Oct_12_1116,60.2510608578,test_experiment,001,pilot_shivani,
2,short,distractor,t1,K,16,0,0,0,0,15,0,15,0,0,1,1,1,,,,,2018_Oct_12_1116,60.2510608578,test_experiment,001,pilot_shivani,
3,short,distractor,t1,Y,16,0,0,0,0,15,0,15,0,0,2,2,2,,,,,2018_Oct_12_1116,60.2510608578,test_experiment,001,pilot_shivani,
4,short,distractor,t1,D,16,0,0,0,0,15,0,15,0,0,3,3,3,,,,,2018_Oct_12_1116,60.2510608578,test_experiment,001,pilot_shivani,
5,short,distractor,t1,L,16,0,0,0,0,15,0,15,0,0,4,4,4,,,,,2018_Oct_12_1116,60.2510608578,test_experiment,001,pilot_shivani,
6,short,distractor,t1,B,16,0,0,0,0,15,0,15,0,0,5,5,5,,,,,2018_Oct_12_1116,60.2510608578,test_experiment,001,pilot_shivani,
7,short,target,t1,7,16,0,0,0,0,15,0,15,0,0,6,6,6,,,,,2018_Oct_12_1116,60.2510608578,test_experiment,001,pilot_shivani,
8,short,distractor,t1,U,16,0,0,0,0,15,0,15,0,0,7,7,7,,,,,2018_Oct_12_1116,60.2510608578,test_experiment,001,pilot_shivani,
9,short,distractor,t1,G,16,0,0,0,0,15,0,15,0,0,8,8,8,,,,,2018_Oct_12_1116,60.2510608578,test_experiment,001,pilot_shivani,
10,short,distractor,t1,G,16,0,0,0,0,15,0,15,0,0,9,9,9,,,,,2018_Oct_12_1116,60.2510608578,test_experiment,001,pilot_shivani,
11,short,mask,t1, ,16,0,0,0,0,15,0,15,0,0,10,10,10,,,,,2018_Oct_12_1116,60.2510608578,test_experiment,001,pilot_shivani,
12,short,distractor,t1,D,16,0,0,0,0,15,0,15,0,0,11,11,11,,,,,2018_Oct_12_1116,60.2510608578,test_experiment,001,pilot_shivani,
13,short,distractor,t1,S,16,0,0,0,0,15,0,15,0,0,12,12,12,,,,,2018_Oct_12_1116,60.2510608578,test_experiment,001,pilot_shivani,
14,short,distractor,t1,E,16,0,0,0,0,15,0,15,0,0,13,13,13,,,,,2018_Oct_12_1116,60.2510608578,test_experiment,001,pilot_shivani,
15,short,distractor,t1,V,16,0,0,0,0,15,0,15,0,0,14,14,14,,,,,2018_Oct_12_1116,60.2510608578,test_experiment,001,pilot_shivani,
16,short,distractor,t1,Y,16,0,0,0,0,15,0,15,0,0,15,15,15,,,,,2018_Oct_12_1116,60.2510608578,test_experiment,001,pilot_shivani,
,,,,,,0,0,0,0,15,0,15,0,,,,,7,0.401009397465,7,0.901507275645,2018_Oct_12_1116,60.2510608578,test_experiment,001,pilot_shivani,
1,short,distractor,t2,B,17,0,0,0,0,16,0,16,0,0,0,0,0,,,,,2018_Oct_12_1116,60.2510608578,test_experiment,001,pilot_shivani,
2,short,target,t2,7,17,0,0,0,0,16,0,16,0,0,1,1,1,,,,,2018_Oct_12_1116,60.2510608578,test_experiment,001,pilot_shivani,
3,short,distractor,t2,T,17,0,0,0,0,16,0,16,0,0,2,2,2,,,,,2018_Oct_12_1116,60.2510608578,test_experiment,001,pilot_shivani,
4,short,distractor,t2,W,17,0,0,0,0,16,0,16,0,0,3,3,3,,,,,2018_Oct_12_1116,60.2510608578,test_experiment,001,pilot_shivani,
5,short,distractor,t2,P,17,0,0,0,0,16,0,16,0,0,4,4,4,,,,,2018_Oct_12_1116,60.2510608578,test_experiment,001,pilot_shivani,
6,short,target,t2,1,17,0,0,0,0,16,0,16,0,0,5,5,5,,,,,2018_Oct_12_1116,60.2510608578,test_experiment,001,pilot_shivani,
7,short,distractor,t2,H,17,0,0,0,0,16,0,16,0,0,6,6,6,,,,,2018_Oct_12_1116,60.2510608578,test_experiment,001,pilot_shivani,
8,short,distractor,t2,O,17,0,0,0,0,16,0,16,0,0,7,7,7,,,,,2018_Oct_12_1116,60.2510608578,test_experiment,001,pilot_shivani,
9,short,distractor,t2,T,17,0,0,0,0,16,0,16,0,0,8,8,8,,,,,2018_Oct_12_1116,60.2510608578,test_experiment,001,pilot_shivani,
10,short,distractor,t2,X,17,0,0,0,0,16,0,16,0,0,9,9,9,,,,,2018_Oct_12_1116,60.2510608578,test_experiment,001,pilot_shivani,
11,short,distractor,t2,X,17,0,0,0,0,16,0,16,0,0,10,10,10,,,,,2018_Oct_12_1116,60.2510608578,test_experiment,001,pilot_shivani,
12,short,distractor,t2,L,17,0,0,0,0,16,0,16,0,0,11,11,11,,,,,2018_Oct_12_1116,60.2510608578,test_experiment,001,pilot_shivani,
13,short,distractor,t2,C,17,0,0,0,0,16,0,16,0,0,12,12,12,,,,,2018_Oct_12_1116,60.2510608578,test_experiment,001,pilot_shivani,
14,short,distractor,t2,U,17,0,0,0,0,16,0,16,0,0,13,13,13,,,,,2018_Oct_12_1116,60.2510608578,test_experiment,001,pilot_shivani,
15,short,distractor,t2,R,17,0,0,0,0,16,0,16,0,0,14,14,14,,,,,2018_Oct_12_1116,60.2510608578,test_experiment,001,pilot_shivani,
,,,,,,0,0,0,0,16,0,16,0,,,,,1,0.584206297644,1,2.35121678165,2018_Oct_12_1116,60.2510608578,test_experiment,001,pilot_shivani,
1,short,distractor,t2,V,18,0,0,0,0,17,0,17,0,0,0,0,0,,,,,2018_Oct_12_1116,60.2510608578,test_experiment,001,pilot_shivani,
2,short,distractor,t2,U,18,0,0,0,0,17,0,17,0,0,1,1,1,,,,,2018_Oct_12_1116,60.2510608578,test_experiment,001,pilot_shivani,
3,short,distractor,t2,L,18,0,0,0,0,17,0,17,0,0,2,2,2,,,,,2018_Oct_12_1116,60.2510608578,test_experiment,001,pilot_shivani,
4,short,distractor,t2,K,18,0,0,0,0,17,0,17,0,0,3,3,3,,,,,2018_Oct_12_1116,60.2510608578,test_experiment,001,pilot_shivani,
5,short,distractor,t2,W,18,0,0,0,0,17,0,17,0,0,4,4,4,,,,,2018_Oct_12_1116,60.2510608578,test_experiment,001,pilot_shivani,
6,short,distractor,t2,X,18,0,0,0,0,17,0,17,0,0,5,5,5,,,,,2018_Oct_12_1116,60.2510608578,test_experiment,001,pilot_shivani,
7,short,distractor,t2,C,18,0,0,0,0,17,0,17,0,0,6,6,6,,,,,2018_Oct_12_1116,60.2510608578,test_experiment,001,pilot_shivani,
8,short,distractor,t2,Q,18,0,0,0,0,17,0,17,0,0,7,7,7,,,,,2018_Oct_12_1116,60.2510608578,test_experiment,001,pilot_shivani,
9,short,target,t2,6,18,0,0,0,0,17,0,17,0,0,8,8,8,,,,,2018_Oct_12_1116,60.2510608578,test_experiment,001,pilot_shivani,
10,short,distractor,t2,E,18,0,0,0,0,17,0,17,0,0,9,9,9,,,,,2018_Oct_12_1116,60.2510608578,test_experiment,001,pilot_shivani,
11,short,distractor,t2,M,18,0,0,0,0,17,0,17,0,0,10,10,10,,,,,2018_Oct_12_1116,60.2510608578,test_experiment,001,pilot_shivani,
12,short,distractor,t2,I,18,0,0,0,0,17,0,17,0,0,11,11,11,,,,,2018_Oct_12_1116,60.2510608578,test_experiment,001,pilot_shivani,
13,short,target,t2,1,18,0,0,0,0,17,0,17,0,0,12,12,12,,,,,2018_Oct_12_1116,60.2510608578,test_experiment,001,pilot_shivani,
14,short,distractor,t2,T,18,0,0,0,0,17,0,17,0,0,13,13,13,,,,,2018_Oct_12_1116,60.2510608578,test_experiment,001,pilot_shivani,
15,short,distractor,t2,D,18,0,0,0,0,17,0,17,0,0,14,14,14,,,,,2018_Oct_12_1116,60.2510608578,test_experiment,001,pilot_shivani,
16,short,distractor,t2,V,18,0,0,0,0,17,0,17,0,0,15,15,15,,,,,2018_Oct_12_1116,60.2510608578,test_experiment,001,pilot_shivani,
,,,,,,0,0,0,0,17,0,17,0,,,,,6,0.950743121328,6,1.00133468583,2018_Oct_12_1116,60.2510608578,test_experiment,001,pilot_shivani,
1,short,distractor,t1,H,19,0,0,0,0,18,0,18,0,0,0,0,0,,,,,2018_Oct_12_1116,60.2510608578,test_experiment,001,pilot_shivani,
2,short,distractor,t1,D,19,0,0,0,0,18,0,18,0,0,1,1,1,,,,,2018_Oct_12_1116,60.2510608578,test_experiment,001,pilot_shivani,
3,short,distractor,t1,C,19,0,0,0,0,18,0,18,0,0,2,2,2,,,,,2018_Oct_12_1116,60.2510608578,test_experiment,001,pilot_shivani,
4,short,distractor,t1,Q,19,0,0,0,0,18,0,18,0,0,3,3,3,,,,,2018_Oct_12_1116,60.2510608578,test_experiment,001,pilot_shivani,
5,short,target,t1,2,19,0,0,0,0,18,0,18,0,0,4,4,4,,,,,2018_Oct_12_1116,60.2510608578,test_experiment,001,pilot_shivani,
6,short,distractor,t1,G,19,0,0,0,0,18,0,18,0,0,5,5,5,,,,,2018_Oct_12_1116,60.2510608578,test_experiment,001,pilot_shivani,
7,short,distractor,t1,K,19,0,0,0,0,18,0,18,0,0,6,6,6,,,,,2018_Oct_12_1116,60.2510608578,test_experiment,001,pilot_shivani,
8,short,distractor,t1,V,19,0,0,0,0,18,0,18,0,0,7,7,7,,,,,2018_Oct_12_1116,60.2510608578,test_experiment,001,pilot_shivani,
9,short,mask,t1, ,19,0,0,0,0,18,0,18,0,0,8,8,8,,,,,2018_Oct_12_1116,60.2510608578,test_experiment,001,pilot_shivani,
10,short,distractor,t1,M,19,0,0,0,0,18,0,18,0,0,9,9,9,,,,,2018_Oct_12_1116,60.2510608578,test_experiment,001,pilot_shivani,
11,short,distractor,t1,G,19,0,0,0,0,18,0,18,0,0,10,10,10,,,,,2018_Oct_12_1116,60.2510608578,test_experiment,001,pilot_shivani,
12,short,distractor,t1,W,19,0,0,0,0,18,0,18,0,0,11,11,11,,,,,2018_Oct_12_1116,60.2510608578,test_experiment,001,pilot_shivani,
13,short,distractor,t1,J,19,0,0,0,0,18,0,18,0,0,12,12,12,,,,,2018_Oct_12_1116,60.2510608578,test_experiment,001,pilot_shivani,
14,short,distractor,t1,Y,19,0,0,0,0,18,0,18,0,0,13,13,13,,,,,2018_Oct_12_1116,60.2510608578,test_experiment,001,pilot_shivani,
15,short,distractor,t1,E,19,0,0,0,0,18,0,18,0,0,14,14,14,,,,,2018_Oct_12_1116,60.2510608578,test_experiment,001,pilot_shivani,
16,short,distractor,t1,T,19,0,0,0,0,18,0,18,0,0,15,15,15,,,,,2018_Oct_12_1116,60.2510608578,test_experiment,001,pilot_shivani,
17,short,distractor,t1,I,19,0,0,0,0,18,0,18,0,0,16,16,16,,,,,2018_Oct_12_1116,60.2510608578,test_experiment,001,pilot_shivani,
,,,,,,0,0,0,0,18,0,18,0,,,,,2,0.802015489899,2,0.885203496087,2018_Oct_12_1116,60.2510608578,test_experiment,001,pilot_shivani,
1,short,distractor,t1,E,20,0,0,0,0,19,0,19,0,0,0,0,0,,,,,2018_Oct_12_1116,60.2510608578,test_experiment,001,pilot_shivani,
2,short,distractor,t1,I,20,0,0,0,0,19,0,19,0,0,1,1,1,,,,,2018_Oct_12_1116,60.2510608578,test_experiment,001,pilot_shivani,
3,short,distractor,t1,D,20,0,0,0,0,19,0,19,0,0,2,2,2,,,,,2018_Oct_12_1116,60.2510608578,test_experiment,001,pilot_shivani,
4,short,distractor,t1,S,20,0,0,0,0,19,0,19,0,0,3,3,3,,,,,2018_Oct_12_1116,60.2510608578,test_experiment,001,pilot_shivani,
5,short,distractor,t1,K,20,0,0,0,0,19,0,19,0,0,4,4,4,,,,,2018_Oct_12_1116,60.2510608578,test_experiment,001,pilot_shivani,
6,short,distractor,t1,T,20,0,0,0,0,19,0,19,0,0,5,5,5,,,,,2018_Oct_12_1116,60.2510608578,test_experiment,001,pilot_shivani,
7,short,target,t1,7,20,0,0,0,0,19,0,19,0,0,6,6,6,,,,,2018_Oct_12_1116,60.2510608578,test_experiment,001,pilot_shivani,
8,short,distractor,t1,A,20,0,0,0,0,19,0,19,0,0,7,7,7,,,,,2018_Oct_12_1116,60.2510608578,test_experiment,001,pilot_shivani,
9,short,distractor,t1,Z,20,0,0,0,0,19,0,19,0,0,8,8,8,,,,,2018_Oct_12_1116,60.2510608578,test_experiment,001,pilot_shivani,
10,short,distractor,t1,F,20,0,0,0,0,19,0,19,0,0,9,9,9,,,,,2018_Oct_12_1116,60.2510608578,test_experiment,001,pilot_shivani,
11,short,mask,t1, ,20,0,0,0,0,19,0,19,0,0,10,10,10,,,,,2018_Oct_12_1116,60.2510608578,test_experiment,001,pilot_shivani,
12,short,distractor,t1,D,20,0,0,0,0,19,0,19,0,0,11,11,11,,,,,2018_Oct_12_1116,60.2510608578,test_experiment,001,pilot_shivani,
13,short,distractor,t1,H,20,0,0,0,0,19,0,19,0,0,12,12,12,,,,,2018_Oct_12_1116,60.2510608578,test_experiment,001,pilot_shivani,
14,short,distractor,t1,Y,20,0,0,0,0,19,0,19,0,0,13,13,13,,,,,2018_Oct_12_1116,60.2510608578,test_experiment,001,pilot_shivani,
15,short,distractor,t1,R,20,0,0,0,0,19,0,19,0,0,14,14,14,,,,,2018_Oct_12_1116,60.2510608578,test_experiment,001,pilot_shivani,
16,short,distractor,t1,H,20,0,0,0,0,19,0,19,0,0,15,15,15,,,,,2018_Oct_12_1116,60.2510608578,test_experiment,001,pilot_shivani,
,,,,,,0,0,0,0,19,0,19,0,,,,,1,1.08413959341,1,0.651276815333,2018_Oct_12_1116,60.2510608578,test_experiment,001,pilot_shivani,
1,short,distractor,t1,E,21,0,0,0,0,20,0,20,0,0,0,0,0,,,,,2018_Oct_12_1116,60.2510608578,test_experiment,001,pilot_shivani,
2,short,distractor,t1,J,21,0,0,0,0,20,0,20,0,0,1,1,1,,,,,2018_Oct_12_1116,60.2510608578,test_experiment,001,pilot_shivani,
3,short,distractor,t1,R,21,0,0,0,0,20,0,20,0,0,2,2,2,,,,,2018_Oct_12_1116,60.2510608578,test_experiment,001,pilot_shivani,
4,short,distractor,t1,J,21,0,0,0,0,20,0,20,0,0,3,3,3,,,,,2018_Oct_12_1116,60.2510608578,test_experiment,001,pilot_shivani,
5,short,distractor,t1,U,21,0,0,0,0,20,0,20,0,0,4,4,4,,,,,2018_Oct_12_1116,60.2510608578,test_experiment,001,pilot_shivani,
6,short,target,t1,5,21,0,0,0,0,20,0,20,0,0,5,5,5,,,,,2018_Oct_12_1116,60.2510608578,test_experiment,001,pilot_shivani,
7,short,distractor,t1,T,21,0,0,0,0,20,0,20,0,0,6,6,6,,,,,2018_Oct_12_1116,60.2510608578,test_experiment,001,pilot_shivani,
8,short,distractor,t1,X,21,0,0,0,0,20,0,20,0,0,7,7,7,,,,,2018_Oct_12_1116,60.2510608578,test_experiment,001,pilot_shivani,
9,short,distractor,t1,F,21,0,0,0,0,20,0,20,0,0,8,8,8,,,,,2018_Oct_12_1116,60.2510608578,test_experiment,001,pilot_shivani,
10,short,mask,t1, ,21,0,0,0,0,20,0,20,0,0,9,9,9,,,,,2018_Oct_12_1116,60.2510608578,test_experiment,001,pilot_shivani,
11,short,distractor,t1,A,21,0,0,0,0,20,0,20,0,0,10,10,10,,,,,2018_Oct_12_1116,60.2510608578,test_experiment,001,pilot_shivani,
12,short,distractor,t1,Q,21,0,0,0,0,20,0,20,0,0,11,11,11,,,,,2018_Oct_12_1116,60.2510608578,test_experiment,001,pilot_shivani,
13,short,distractor,t1,I,21,0,0,0,0,20,0,20,0,0,12,12,12,,,,,2018_Oct_12_1116,60.2510608578,test_experiment,001,pilot_shivani,
14,short,distractor,t1,L,21,0,0,0,0,20,0,20,0,0,13,13,13,,,,,2018_Oct_12_1116,60.2510608578,test_experiment,001,pilot_shivani,
15,short,distractor,t1,L,21,0,0,0,0,20,0,20,0,0,14,14,14,,,,,2018_Oct_12_1116,60.2510608578,test_experiment,001,pilot_shivani,
16,short,distractor,t1,R,21,0,0,0,0,20,0,20,0,0,15,15,15,,,,,2018_Oct_12_1116,60.2510608578,test_experiment,001,pilot_shivani,
,,,,,,0,0,0,0,20,0,20,0,,,,,9,0.384086650563,9,0.718748760526,2018_Oct_12_1116,60.2510608578,test_experiment,001,pilot_shivani,
1,long,distractor,t2,A,22,0,0,0,0,21,0,21,0,0,0,0,0,,,,,2018_Oct_12_1116,60.2510608578,test_experiment,001,pilot_shivani,
2,long,distractor,t2,W,22,0,0,0,0,21,0,21,0,0,1,1,1,,,,,2018_Oct_12_1116,60.2510608578,test_experiment,001,pilot_shivani,
3,long,target,t2,7,22,0,0,0,0,21,0,21,0,0,2,2,2,,,,,2018_Oct_12_1116,60.2510608578,test_experiment,001,pilot_shivani,
4,long,distractor,t2,X,22,0,0,0,0,21,0,21,0,0,3,3,3,,,,,2018_Oct_12_1116,60.2510608578,test_experiment,001,pilot_shivani,
5,long,distractor,t2,L,22,0,0,0,0,21,0,21,0,0,4,4,4,,,,,2018_Oct_12_1116,60.2510608578,test_experiment,001,pilot_shivani,
6,long,distractor,t2,G,22,0,0,0,0,21,0,21,0,0,5,5,5,,,,,2018_Oct_12_1116,60.2510608578,test_experiment,001,pilot_shivani,
7,long,distractor,t2,E,22,0,0,0,0,21,0,21,0,0,6,6,6,,,,,2018_Oct_12_1116,60.2510608578,test_experiment,001,pilot_shivani,
8,long,distractor,t2,A,22,0,0,0,0,21,0,21,0,0,7,7,7,,,,,2018_Oct_12_1116,60.2510608578,test_experiment,001,pilot_shivani,
9,long,distractor,t2,Y,22,0,0,0,0,21,0,21,0,0,8,8,8,,,,,2018_Oct_12_1116,60.2510608578,test_experiment,001,pilot_shivani,
10,long,distractor,t2,N,22,0,0,0,0,21,0,21,0,0,9,9,9,,,,,2018_Oct_12_1116,60.2510608578,test_experiment,001,pilot_shivani,
11,long,target,t2,6,22,0,0,0,0,21,0,21,0,0,10,10,10,,,,,2018_Oct_12_1116,60.2510608578,test_experiment,001,pilot_shivani,
12,long,distractor,t2,H,22,0,0,0,0,21,0,21,0,0,11,11,11,,,,,2018_Oct_12_1116,60.2510608578,test_experiment,001,pilot_shivani,
13,long,distractor,t2,I,22,0,0,0,0,21,0,21,0,0,12,12,12,,,,,2018_Oct_12_1116,60.2510608578,test_experiment,001,pilot_shivani,
14,long,distractor,t2,R,22,0,0,0,0,21,0,21,0,0,13,13,13,,,,,2018_Oct_12_1116,60.2510608578,test_experiment,001,pilot_shivani,
15,long,distractor,t2,Z,22,0,0,0,0,21,0,21,0,0,14,14,14,,,,,2018_Oct_12_1116,60.2510608578,test_experiment,001,pilot_shivani,
,,,,,,0,0,0,0,21,0,21,0,,,,,7,0.967749699252,7,0.635462500737,2018_Oct_12_1116,60.2510608578,test_experiment,001,pilot_shivani,
1,short,distractor,t1,T,23,0,0,0,0,22,0,22,0,0,0,0,0,,,,,2018_Oct_12_1116,60.2510608578,test_experiment,001,pilot_shivani,
2,short,distractor,t1,S,23,0,0,0,0,22,0,22,0,0,1,1,1,,,,,2018_Oct_12_1116,60.2510608578,test_experiment,001,pilot_shivani,
3,short,distractor,t1,E,23,0,0,0,0,22,0,22,0,0,2,2,2,,,,,2018_Oct_12_1116,60.2510608578,test_experiment,001,pilot_shivani,
4,short,distractor,t1,E,23,0,0,0,0,22,0,22,0,0,3,3,3,,,,,2018_Oct_12_1116,60.2510608578,test_experiment,001,pilot_shivani,
5,short,distractor,t1,D,23,0,0,0,0,22,0,22,0,0,4,4,4,,,,,2018_Oct_12_1116,60.2510608578,test_experiment,001,pilot_shivani,
6,short,distractor,t1,V,23,0,0,0,0,22,0,22,0,0,5,5,5,,,,,2018_Oct_12_1116,60.2510608578,test_experiment,001,pilot_shivani,
7,short,distractor,t1,X,23,0,0,0,0,22,0,22,0,0,6,6,6,,,,,2018_Oct_12_1116,60.2510608578,test_experiment,001,pilot_shivani,
8,short,target,t1,5,23,0,0,0,0,22,0,22,0,0,7,7,7,,,,,2018_Oct_12_1116,60.2510608578,test_experiment,001,pilot_shivani,
9,short,distractor,t1,P,23,0,0,0,0,22,0,22,0,0,8,8,8,,,,,2018_Oct_12_1116,60.2510608578,test_experiment,001,pilot_shivani,
10,short,distractor,t1,A,23,0,0,0,0,22,0,22,0,0,9,9,9,,,,,2018_Oct_12_1116,60.2510608578,test_experiment,001,pilot_shivani,
11,short,distractor,t1,O,23,0,0,0,0,22,0,22,0,0,10,10,10,,,,,2018_Oct_12_1116,60.2510608578,test_experiment,001,pilot_shivani,
12,short,mask,t1, ,23,0,0,0,0,22,0,22,0,0,11,11,11,,,,,2018_Oct_12_1116,60.2510608578,test_experiment,001,pilot_shivani,
13,short,distractor,t1,T,23,0,0,0,0,22,0,22,0,0,12,12,12,,,,,2018_Oct_12_1116,60.2510608578,test_experiment,001,pilot_shivani,
14,short,distractor,t1,P,23,0,0,0,0,22,0,22,0,0,13,13,13,,,,,2018_Oct_12_1116,60.2510608578,test_experiment,001,pilot_shivani,
15,short,distractor,t1,T,23,0,0,0,0,22,0,22,0,0,14,14,14,,,,,2018_Oct_12_1116,60.2510608578,test_experiment,001,pilot_shivani,
,,,,,,0,0,0,0,22,0,22,0,,,,,6,1.66738198453,6,0.568380865618,2018_Oct_12_1116,60.2510608578,test_experiment,001,pilot_shivani,
1,short,distractor,t1,U,24,0,0,0,0,23,0,23,0,0,0,0,0,,,,,2018_Oct_12_1116,60.2510608578,test_experiment,001,pilot_shivani,
2,short,distractor,t1,L,24,0,0,0,0,23,0,23,0,0,1,1,1,,,,,2018_Oct_12_1116,60.2510608578,test_experiment,001,pilot_shivani,
3,short,distractor,t1,Q,24,0,0,0,0,23,0,23,0,0,2,2,2,,,,,2018_Oct_12_1116,60.2510608578,test_experiment,001,pilot_shivani,
4,short,distractor,t1,F,24,0,0,0,0,23,0,23,0,0,3,3,3,,,,,2018_Oct_12_1116,60.2510608578,test_experiment,001,pilot_shivani,
5,short,target,t1,7,24,0,0,0,0,23,0,23,0,0,4,4,4,,,,,2018_Oct_12_1116,60.2510608578,test_experiment,001,pilot_shivani,
6,short,distractor,t1,K,24,0,0,0,0,23,0,23,0,0,5,5,5,,,,,2018_Oct_12_1116,60.2510608578,test_experiment,001,pilot_shivani,
7,short,distractor,t1,R,24,0,0,0,0,23,0,23,0,0,6,6,6,,,,,2018_Oct_12_1116,60.2510608578,test_experiment,001,pilot_shivani,
8,short,distractor,t1,G,24,0,0,0,0,23,0,23,0,0,7,7,7,,,,,2018_Oct_12_1116,60.2510608578,test_experiment,001,pilot_shivani,
9,short,mask,t1, ,24,0,0,0,0,23,0,23,0,0,8,8,8,,,,,2018_Oct_12_1116,60.2510608578,test_experiment,001,pilot_shivani,
10,short,distractor,t1,M,24,0,0,0,0,23,0,23,0,0,9,9,9,,,,,2018_Oct_12_1116,60.2510608578,test_experiment,001,pilot_shivani,
11,short,distractor,t1,U,24,0,0,0,0,23,0,23,0,0,10,10,10,,,,,2018_Oct_12_1116,60.2510608578,test_experiment,001,pilot_shivani,
12,short,distractor,t1,T,24,0,0,0,0,23,0,23,0,0,11,11,11,,,,,2018_Oct_12_1116,60.2510608578,test_experiment,001,pilot_shivani,
13,short,distractor,t1,I,24,0,0,0,0,23,0,23,0,0,12,12,12,,,,,2018_Oct_12_1116,60.2510608578,test_experiment,001,pilot_shivani,
14,short,distractor,t1,E,24,0,0,0,0,23,0,23,0,0,13,13,13,,,,,2018_Oct_12_1116,60.2510608578,test_experiment,001,pilot_shivani,
15,short,distractor,t1,J,24,0,0,0,0,23,0,23,0,0,14,14,14,,,,,2018_Oct_12_1116,60.2510608578,test_experiment,001,pilot_shivani,
16,short,distractor,t1,I,24,0,0,0,0,23,0,23,0,0,15,15,15,,,,,2018_Oct_12_1116,60.2510608578,test_experiment,001,pilot_shivani,
,,,,,,0,0,0,0,23,0,23,0,,,,,9,0.367557218415,9,0.618242289056,2018_Oct_12_1116,60.2510608578,test_experiment,001,pilot_shivani,
1,short,distractor,t1,L,25,0,0,0,0,24,0,24,0,0,0,0,0,,,,,2018_Oct_12_1116,60.2510608578,test_experiment,001,pilot_shivani,
2,short,distractor,t1,O,25,0,0,0,0,24,0,24,0,0,1,1,1,,,,,2018_Oct_12_1116,60.2510608578,test_experiment,001,pilot_shivani,
3,short,distractor,t1,Q,25,0,0,0,0,24,0,24,0,0,2,2,2,,,,,2018_Oct_12_1116,60.2510608578,test_experiment,001,pilot_shivani,
4,short,target,t1,7,25,0,0,0,0,24,0,24,0,0,3,3,3,,,,,2018_Oct_12_1116,60.2510608578,test_experiment,001,pilot_shivani,
5,short,distractor,t1,S,25,0,0,0,0,24,0,24,0,0,4,4,4,,,,,2018_Oct_12_1116,60.2510608578,test_experiment,001,pilot_shivani,
6,short,distractor,t1,C,25,0,0,0,0,24,0,24,0,0,5,5,5,,,,,2018_Oct_12_1116,60.2510608578,test_experiment,001,pilot_shivani,
7,short,distractor,t1,Q,25,0,0,0,0,24,0,24,0,0,6,6,6,,,,,2018_Oct_12_1116,60.2510608578,test_experiment,001,pilot_shivani,
8,short,mask,t1, ,25,0,0,0,0,24,0,24,0,0,7,7,7,,,,,2018_Oct_12_1116,60.2510608578,test_experiment,001,pilot_shivani,
9,short,distractor,t1,N,25,0,0,0,0,24,0,24,0,0,8,8,8,,,,,2018_Oct_12_1116,60.2510608578,test_experiment,001,pilot_shivani,
10,short,distractor,t1,W,25,0,0,0,0,24,0,24,0,0,9,9,9,,,,,2018_Oct_12_1116,60.2510608578,test_experiment,001,pilot_shivani,
11,short,distractor,t1,G,25,0,0,0,0,24,0,24,0,0,10,10,10,,,,,2018_Oct_12_1116,60.2510608578,test_experiment,001,pilot_shivani,
12,short,distractor,t1,X,25,0,0,0,0,24,0,24,0,0,11,11,11,,,,,2018_Oct_12_1116,60.2510608578,test_experiment,001,pilot_shivani,
13,short,distractor,t1,Z,25,0,0,0,0,24,0,24,0,0,12,12,12,,,,,2018_Oct_12_1116,60.2510608578,test_experiment,001,pilot_shivani,
14,short,distractor,t1,M,25,0,0,0,0,24,0,24,0,0,13,13,13,,,,,2018_Oct_12_1116,60.2510608578,test_experiment,001,pilot_shivani,
15,short,distractor,t1,R,25,0,0,0,0,24,0,24,0,0,14,14,14,,,,,2018_Oct_12_1116,60.2510608578,test_experiment,001,pilot_shivani,
16,short,distractor,t1,Q,25,0,0,0,0,24,0,24,0,0,15,15,15,,,,,2018_Oct_12_1116,60.2510608578,test_experiment,001,pilot_shivani,
17,short,distractor,t1,G,25,0,0,0,0,24,0,24,0,0,16,16,16,,,,,2018_Oct_12_1116,60.2510608578,test_experiment,001,pilot_shivani,
,,,,,,0,0,0,0,24,0,24,0,,,,,2,1.21765144577,2,0.451524041826,2018_Oct_12_1116,60.2510608578,test_experiment,001,pilot_shivani,
1,short,distractor,t2,O,26,0,0,0,0,25,0,25,0,0,0,0,0,,,,,2018_Oct_12_1116,60.2510608578,test_experiment,001,pilot_shivani,
2,short,distractor,t2,E,26,0,0,0,0,25,0,25,0,0,1,1,1,,,,,2018_Oct_12_1116,60.2510608578,test_experiment,001,pilot_shivani,
3,short,target,t2,3,26,0,0,0,0,25,0,25,0,0,2,2,2,,,,,2018_Oct_12_1116,60.2510608578,test_experiment,001,pilot_shivani,
4,short,distractor,t2,D,26,0,0,0,0,25,0,25,0,0,3,3,3,,,,,2018_Oct_12_1116,60.2510608578,test_experiment,001,pilot_shivani,
5,short,distractor,t2,H,26,0,0,0,0,25,0,25,0,0,4,4,4,,,,,2018_Oct_12_1116,60.2510608578,test_experiment,001,pilot_shivani,
6,short,distractor,t2,N,26,0,0,0,0,25,0,25,0,0,5,5,5,,,,,2018_Oct_12_1116,60.2510608578,test_experiment,001,pilot_shivani,
7,short,target,t2,2,26,0,0,0,0,25,0,25,0,0,6,6,6,,,,,2018_Oct_12_1116,60.2510608578,test_experiment,001,pilot_shivani,
8,short,distractor,t2,K,26,0,0,0,0,25,0,25,0,0,7,7,7,,,,,2018_Oct_12_1116,60.2510608578,test_experiment,001,pilot_shivani,
9,short,distractor,t2,P,26,0,0,0,0,25,0,25,0,0,8,8,8,,,,,2018_Oct_12_1116,60.2510608578,test_experiment,001,pilot_shivani,
10,short,distractor,t2,R,26,0,0,0,0,25,0,25,0,0,9,9,9,,,,,2018_Oct_12_1116,60.2510608578,test_experiment,001,pilot_shivani,
11,short,distractor,t2,K,26,0,0,0,0,25,0,25,0,0,10,10,10,,,,,2018_Oct_12_1116,60.2510608578,test_experiment,001,pilot_shivani,
12,short,distractor,t2,O,26,0,0,0,0,25,0,25,0,0,11,11,11,,,,,2018_Oct_12_1116,60.2510608578,test_experiment,001,pilot_shivani,
13,short,distractor,t2,J,26,0,0,0,0,25,0,25,0,0,12,12,12,,,,,2018_Oct_12_1116,60.2510608578,test_experiment,001,pilot_shivani,
14,short,distractor,t2,Q,26,0,0,0,0,25,0,25,0,0,13,13,13,,,,,2018_Oct_12_1116,60.2510608578,test_experiment,001,pilot_shivani,
15,short,distractor,t2,G,26,0,0,0,0,25,0,25,0,0,14,14,14,,,,,2018_Oct_12_1116,60.2510608578,test_experiment,001,pilot_shivani,
16,short,distractor,t2,B,26,0,0,0,0,25,0,25,0,0,15,15,15,,,,,2018_Oct_12_1116,60.2510608578,test_experiment,001,pilot_shivani,
,,,,,,0,0,0,0,25,0,25,0,,,,,3,0.700835365453,3,0.517805225914,2018_Oct_12_1116,60.2510608578,test_experiment,001,pilot_shivani,
1,short,distractor,t1,G,27,0,0,0,0,26,0,26,0,0,0,0,0,,,,,2018_Oct_12_1116,60.2510608578,test_experiment,001,pilot_shivani,
2,short,distractor,t1,B,27,0,0,0,0,26,0,26,0,0,1,1,1,,,,,2018_Oct_12_1116,60.2510608578,test_experiment,001,pilot_shivani,
3,short,distractor,t1,G,27,0,0,0,0,26,0,26,0,0,2,2,2,,,,,2018_Oct_12_1116,60.2510608578,test_experiment,001,pilot_shivani,
4,short,distractor,t1,E,27,0,0,0,0,26,0,26,0,0,3,3,3,,,,,2018_Oct_12_1116,60.2510608578,test_experiment,001,pilot_shivani,
5,short,target,t1,8,27,0,0,0,0,26,0,26,0,0,4,4,4,,,,,2018_Oct_12_1116,60.2510608578,test_experiment,001,pilot_shivani,
6,short,distractor,t1,G,27,0,0,0,0,26,0,26,0,0,5,5,5,,,,,2018_Oct_12_1116,60.2510608578,test_experiment,001,pilot_shivani,
7,short,distractor,t1,N,27,0,0,0,0,26,0,26,0,0,6,6,6,,,,,2018_Oct_12_1116,60.2510608578,test_experiment,001,pilot_shivani,
8,short,distractor,t1,H,27,0,0,0,0,26,0,26,0,0,7,7,7,,,,,2018_Oct_12_1116,60.2510608578,test_experiment,001,pilot_shivani,
9,short,mask,t1, ,27,0,0,0,0,26,0,26,0,0,8,8,8,,,,,2018_Oct_12_1116,60.2510608578,test_experiment,001,pilot_shivani,
10,short,distractor,t1,G,27,0,0,0,0,26,0,26,0,0,9,9,9,,,,,2018_Oct_12_1116,60.2510608578,test_experiment,001,pilot_shivani,
11,short,distractor,t1,Q,27,0,0,0,0,26,0,26,0,0,10,10,10,,,,,2018_Oct_12_1116,60.2510608578,test_experiment,001,pilot_shivani,
12,short,distractor,t1,W,27,0,0,0,0,26,0,26,0,0,11,11,11,,,,,2018_Oct_12_1116,60.2510608578,test_experiment,001,pilot_shivani,
13,short,distractor,t1,S,27,0,0,0,0,26,0,26,0,0,12,12,12,,,,,2018_Oct_12_1116,60.2510608578,test_experiment,001,pilot_shivani,
14,short,distractor,t1,N,27,0,0,0,0,26,0,26,0,0,13,13,13,,,,,2018_Oct_12_1116,60.2510608578,test_experiment,001,pilot_shivani,
15,short,distractor,t1,N,27,0,0,0,0,26,0,26,0,0,14,14,14,,,,,2018_Oct_12_1116,60.2510608578,test_experiment,001,pilot_shivani,
16,short,distractor,t1,T,27,0,0,0,0,26,0,26,0,0,15,15,15,,,,,2018_Oct_12_1116,60.2510608578,test_experiment,001,pilot_shivani,
17,short,distractor,t1,C,27,0,0,0,0,26,0,26,0,0,16,16,16,,,,,2018_Oct_12_1116,60.2510608578,test_experiment,001,pilot_shivani,
,,,,,,0,0,0,0,26,0,26,0,,,,,8,1.08424055111,8,0.668099806411,2018_Oct_12_1116,60.2510608578,test_experiment,001,pilot_shivani,
1,short,distractor,t1,D,28,0,0,0,0,27,0,27,0,0,0,0,0,,,,,2018_Oct_12_1116,60.2510608578,test_experiment,001,pilot_shivani,
2,short,distractor,t1,L,28,0,0,0,0,27,0,27,0,0,1,1,1,,,,,2018_Oct_12_1116,60.2510608578,test_experiment,001,pilot_shivani,
3,short,distractor,t1,J,28,0,0,0,0,27,0,27,0,0,2,2,2,,,,,2018_Oct_12_1116,60.2510608578,test_experiment,001,pilot_shivani,
4,short,target,t1,2,28,0,0,0,0,27,0,27,0,0,3,3,3,,,,,2018_Oct_12_1116,60.2510608578,test_experiment,001,pilot_shivani,
5,short,distractor,t1,T,28,0,0,0,0,27,0,27,0,0,4,4,4,,,,,2018_Oct_12_1116,60.2510608578,test_experiment,001,pilot_shivani,
6,short,distractor,t1,Q,28,0,0,0,0,27,0,27,0,0,5,5,5,,,,,2018_Oct_12_1116,60.2510608578,test_experiment,001,pilot_shivani,
7,short,distractor,t1,I,28,0,0,0,0,27,0,27,0,0,6,6,6,,,,,2018_Oct_12_1116,60.2510608578,test_experiment,001,pilot_shivani,
8,short,mask,t1, ,28,0,0,0,0,27,0,27,0,0,7,7,7,,,,,2018_Oct_12_1116,60.2510608578,test_experiment,001,pilot_shivani,
9,short,distractor,t1,I,28,0,0,0,0,27,0,27,0,0,8,8,8,,,,,2018_Oct_12_1116,60.2510608578,test_experiment,001,pilot_shivani,
10,short,distractor,t1,I,28,0,0,0,0,27,0,27,0,0,9,9,9,,,,,2018_Oct_12_1116,60.2510608578,test_experiment,001,pilot_shivani,
11,short,distractor,t1,O,28,0,0,0,0,27,0,27,0,0,10,10,10,,,,,2018_Oct_12_1116,60.2510608578,test_experiment,001,pilot_shivani,
12,short,distractor,t1,M,28,0,0,0,0,27,0,27,0,0,11,11,11,,,,,2018_Oct_12_1116,60.2510608578,test_experiment,001,pilot_shivani,
13,short,distractor,t1,C,28,0,0,0,0,27,0,27,0,0,12,12,12,,,,,2018_Oct_12_1116,60.2510608578,test_experiment,001,pilot_shivani,
14,short,distractor,t1,I,28,0,0,0,0,27,0,27,0,0,13,13,13,,,,,2018_Oct_12_1116,60.2510608578,test_experiment,001,pilot_shivani,
15,short,distractor,t1,C,28,0,0,0,0,27,0,27,0,0,14,14,14,,,,,2018_Oct_12_1116,60.2510608578,test_experiment,001,pilot_shivani,
16,short,distractor,t1,E,28,0,0,0,0,27,0,27,0,0,15,15,15,,,,,2018_Oct_12_1116,60.2510608578,test_experiment,001,pilot_shivani,
,,,,,,0,0,0,0,27,0,27,0,,,,,1,0.384376303293,1,0.901166543015,2018_Oct_12_1116,60.2510608578,test_experiment,001,pilot_shivani,
1,short,distractor,t2,T,29,0,0,0,0,28,0,28,0,0,0,0,0,,,,,2018_Oct_12_1116,60.2510608578,test_experiment,001,pilot_shivani,
2,short,distractor,t2,X,29,0,0,0,0,28,0,28,0,0,1,1,1,,,,,2018_Oct_12_1116,60.2510608578,test_experiment,001,pilot_shivani,
3,short,distractor,t2,A,29,0,0,0,0,28,0,28,0,0,2,2,2,,,,,2018_Oct_12_1116,60.2510608578,test_experiment,001,pilot_shivani,
4,short,distractor,t2,Z,29,0,0,0,0,28,0,28,0,0,3,3,3,,,,,2018_Oct_12_1116,60.2510608578,test_experiment,001,pilot_shivani,
5,short,distractor,t2,G,29,0,0,0,0,28,0,28,0,0,4,4,4,,,,,2018_Oct_12_1116,60.2510608578,test_experiment,001,pilot_shivani,
6,short,distractor,t2,U,29,0,0,0,0,28,0,28,0,0,5,5,5,,,,,2018_Oct_12_1116,60.2510608578,test_experiment,001,pilot_shivani,
7,short,target,t2,1,29,0,0,0,0,28,0,28,0,0,6,6,6,,,,,2018_Oct_12_1116,60.2510608578,test_experiment,001,pilot_shivani,
8,short,distractor,t2,D,29,0,0,0,0,28,0,28,0,0,7,7,7,,,,,2018_Oct_12_1116,60.2510608578,test_experiment,001,pilot_shivani,
9,short,distractor,t2,A,29,0,0,0,0,28,0,28,0,0,8,8,8,,,,,2018_Oct_12_1116,60.2510608578,test_experiment,001,pilot_shivani,
10,short,distractor,t2,O,29,0,0,0,0,28,0,28,0,0,9,9,9,,,,,2018_Oct_12_1116,60.2510608578,test_experiment,001,pilot_shivani,
11,short,target,t2,6,29,0,0,0,0,28,0,28,0,0,10,10,10,,,,,2018_Oct_12_1116,60.2510608578,test_experiment,001,pilot_shivani,
12,short,distractor,t2,E,29,0,0,0,0,28,0,28,0,0,11,11,11,,,,,2018_Oct_12_1116,60.2510608578,test_experiment,001,pilot_shivani,
13,short,distractor,t2,Q,29,0,0,0,0,28,0,28,0,0,12,12,12,,,,,2018_Oct_12_1116,60.2510608578,test_experiment,001,pilot_shivani,
14,short,distractor,t2,R,29,0,0,0,0,28,0,28,0,0,13,13,13,,,,,2018_Oct_12_1116,60.2510608578,test_experiment,001,pilot_shivani,
15,short,distractor,t2,O,29,0,0,0,0,28,0,28,0,0,14,14,14,,,,,2018_Oct_12_1116,60.2510608578,test_experiment,001,pilot_shivani,
16,short,distractor,t2,S,29,0,0,0,0,28,0,28,0,0,15,15,15,,,,,2018_Oct_12_1116,60.2510608578,test_experiment,001,pilot_shivani,
17,short,distractor,t2,L,29,0,0,0,0,28,0,28,0,0,16,16,16,,,,,2018_Oct_12_1116,60.2510608578,test_experiment,001,pilot_shivani,
,,,,,,0,0,0,0,28,0,28,0,,,,,6,0.717566112289,6,0.50253806659,2018_Oct_12_1116,60.2510608578,test_experiment,001,pilot_shivani,
1,short,distractor,t2,X,30,0,0,0,0,29,0,29,0,0,0,0,0,,,,,2018_Oct_12_1116,60.2510608578,test_experiment,001,pilot_shivani,
2,short,distractor,t2,B,30,0,0,0,0,29,0,29,0,0,1,1,1,,,,,2018_Oct_12_1116,60.2510608578,test_experiment,001,pilot_shivani,
3,short,distractor,t2,J,30,0,0,0,0,29,0,29,0,0,2,2,2,,,,,2018_Oct_12_1116,60.2510608578,test_experiment,001,pilot_shivani,
4,short,distractor,t2,P,30,0,0,0,0,29,0,29,0,0,3,3,3,,,,,2018_Oct_12_1116,60.2510608578,test_experiment,001,pilot_shivani,
5,short,distractor,t2,V,30,0,0,0,0,29,0,29,0,0,4,4,4,,,,,2018_Oct_12_1116,60.2510608578,test_experiment,001,pilot_shivani,
6,short,distractor,t2,K,30,0,0,0,0,29,0,29,0,0,5,5,5,,,,,2018_Oct_12_1116,60.2510608578,test_experiment,001,pilot_shivani,
7,short,target,t2,4,30,0,0,0,0,29,0,29,0,0,6,6,6,,,,,2018_Oct_12_1116,60.2510608578,test_experiment,001,pilot_shivani,
8,short,distractor,t2,D,30,0,0,0,0,29,0,29,0,0,7,7,7,,,,,2018_Oct_12_1116,60.2510608578,test_experiment,001,pilot_shivani,
9,short,distractor,t2,Y,30,0,0,0,0,29,0,29,0,0,8,8,8,,,,,2018_Oct_12_1116,60.2510608578,test_experiment,001,pilot_shivani,
10,short,distractor,t2,O,30,0,0,0,0,29,0,29,0,0,9,9,9,,,,,2018_Oct_12_1116,60.2510608578,test_experiment,001,pilot_shivani,
11,short,target,t2,3,30,0,0,0,0,29,0,29,0,0,10,10,10,,,,,2018_Oct_12_1116,60.2510608578,test_experiment,001,pilot_shivani,
12,short,distractor,t2,N,30,0,0,0,0,29,0,29,0,0,11,11,11,,,,,2018_Oct_12_1116,60.2510608578,test_experiment,001,pilot_shivani,
13,short,distractor,t2,F,30,0,0,0,0,29,0,29,0,0,12,12,12,,,,,2018_Oct_12_1116,60.2510608578,test_experiment,001,pilot_shivani,
14,short,distractor,t2,W,30,0,0,0,0,29,0,29,0,0,13,13,13,,,,,2018_Oct_12_1116,60.2510608578,test_experiment,001,pilot_shivani,
15,short,distractor,t2,L,30,0,0,0,0,29,0,29,0,0,14,14,14,,,,,2018_Oct_12_1116,60.2510608578,test_experiment,001,pilot_shivani,
,,,,,,0,0,0,0,29,0,29,0,,,,,3,1.95103097125,3,0.401095031295,2018_Oct_12_1116,60.2510608578,test_experiment,001,pilot_shivani,
1,short,distractor,t1,X,31,0,0,0,0,30,0,30,0,0,0,0,0,,,,,2018_Oct_12_1116,60.2510608578,test_experiment,001,pilot_shivani,
2,short,distractor,t1,S,31,0,0,0,0,30,0,30,0,0,1,1,1,,,,,2018_Oct_12_1116,60.2510608578,test_experiment,001,pilot_shivani,
3,short,distractor,t1,P,31,0,0,0,0,30,0,30,0,0,2,2,2,,,,,2018_Oct_12_1116,60.2510608578,test_experiment,001,pilot_shivani,
4,short,distractor,t1,B,31,0,0,0,0,30,0,30,0,0,3,3,3,,,,,2018_Oct_12_1116,60.2510608578,test_experiment,001,pilot_shivani,
5,short,distractor,t1,P,31,0,0,0,0,30,0,30,0,0,4,4,4,,,,,2018_Oct_12_1116,60.2510608578,test_experiment,001,pilot_shivani,
6,short,distractor,t1,Q,31,0,0,0,0,30,0,30,0,0,5,5,5,,,,,2018_Oct_12_1116,60.2510608578,test_experiment,001,pilot_shivani,
7,short,distractor,t1,U,31,0,0,0,0,30,0,30,0,0,6,6,6,,,,,2018_Oct_12_1116,60.2510608578,test_experiment,001,pilot_shivani,
8,short,distractor,t1,T,31,0,0,0,0,30,0,30,0,0,7,7,7,,,,,2018_Oct_12_1116,60.2510608578,test_experiment,001,pilot_shivani,
9,short,distractor,t1,S,31,0,0,0,0,30,0,30,0,0,8,8,8,,,,,2018_Oct_12_1116,60.2510608578,test_experiment,001,pilot_shivani,
10,short,target,t1,1,31,0,0,0,0,30,0,30,0,0,9,9,9,,,,,2018_Oct_12_1116,60.2510608578,test_experiment,001,pilot_shivani,
11,short,distractor,t1,F,31,0,0,0,0,30,0,30,0,0,10,10,10,,,,,2018_Oct_12_1116,60.2510608578,test_experiment,001,pilot_shivani,
12,short,distractor,t1,D,31,0,0,0,0,30,0,30,0,0,11,11,11,,,,,2018_Oct_12_1116,60.2510608578,test_experiment,001,pilot_shivani,
13,short,distractor,t1,A,31,0,0,0,0,30,0,30,0,0,12,12,12,,,,,2018_Oct_12_1116,60.2510608578,test_experiment,001,pilot_shivani,
14,short,mask,t1, ,31,0,0,0,0,30,0,30,0,0,13,13,13,,,,,2018_Oct_12_1116,60.2510608578,test_experiment,001,pilot_shivani,
15,short,distractor,t1,L,31,0,0,0,0,30,0,30,0,0,14,14,14,,,,,2018_Oct_12_1116,60.2510608578,test_experiment,001,pilot_shivani,
,,,,,,0,0,0,0,30,0,30,0,,,,,1,4.55010360188,1,4.4174135339,2018_Oct_12_1116,60.2510608578,test_experiment,001,pilot_shivani,
1,short,distractor,t2,P,32,0,0,0,0,31,0,31,0,0,0,0,0,,,,,2018_Oct_12_1116,60.2510608578,test_experiment,001,pilot_shivani,
2,short,distractor,t2,N,32,0,0,0,0,31,0,31,0,0,1,1,1,,,,,2018_Oct_12_1116,60.2510608578,test_experiment,001,pilot_shivani,
3,short,distractor,t2,U,32,0,0,0,0,31,0,31,0,0,2,2,2,,,,,2018_Oct_12_1116,60.2510608578,test_experiment,001,pilot_shivani,
4,short,distractor,t2,P,32,0,0,0,0,31,0,31,0,0,3,3,3,,,,,2018_Oct_12_1116,60.2510608578,test_experiment,001,pilot_shivani,
5,short,distractor,t2,V,32,0,0,0,0,31,0,31,0,0,4,4,4,,,,,2018_Oct_12_1116,60.2510608578,test_experiment,001,pilot_shivani,
6,short,distractor,t2,G,32,0,0,0,0,31,0,31,0,0,5,5,5,,,,,2018_Oct_12_1116,60.2510608578,test_experiment,001,pilot_shivani,
7,short,distractor,t2,S,32,0,0,0,0,31,0,31,0,0,6,6,6,,,,,2018_Oct_12_1116,60.2510608578,test_experiment,001,pilot_shivani,
8,short,distractor,t2,O,32,0,0,0,0,31,0,31,0,0,7,7,7,,,,,2018_Oct_12_1116,60.2510608578,test_experiment,001,pilot_shivani,
9,short,distractor,t2,R,32,0,0,0,0,31,0,31,0,0,8,8,8,,,,,2018_Oct_12_1116,60.2510608578,test_experiment,001,pilot_shivani,
10,short,target,t2,2,32,0,0,0,0,31,0,31,0,0,9,9,9,,,,,2018_Oct_12_1116,60.2510608578,test_experiment,001,pilot_shivani,
11,short,distractor,t2,K,32,0,0,0,0,31,0,31,0,0,10,10,10,,,,,2018_Oct_12_1116,60.2510608578,test_experiment,001,pilot_shivani,
12,short,distractor,t2,C,32,0,0,0,0,31,0,31,0,0,11,11,11,,,,,2018_Oct_12_1116,60.2510608578,test_experiment,001,pilot_shivani,
13,short,distractor,t2,J,32,0,0,0,0,31,0,31,0,0,12,12,12,,,,,2018_Oct_12_1116,60.2510608578,test_experiment,001,pilot_shivani,
14,short,target,t2,6,32,0,0,0,0,31,0,31,0,0,13,13,13,,,,,2018_Oct_12_1116,60.2510608578,test_experiment,001,pilot_shivani,
15,short,distractor,t2,Y,32,0,0,0,0,31,0,31,0,0,14,14,14,,,,,2018_Oct_12_1116,60.2510608578,test_experiment,001,pilot_shivani,
16,short,distractor,t2,H,32,0,0,0,0,31,0,31,0,0,15,15,15,,,,,2018_Oct_12_1116,60.2510608578,test_experiment,001,pilot_shivani,
17,short,distractor,t2,V,32,0,0,0,0,31,0,31,0,0,16,16,16,,,,,2018_Oct_12_1116,60.2510608578,test_experiment,001,pilot_shivani,
18,short,distractor,t2,J,32,0,0,0,0,31,0,31,0,0,17,17,17,,,,,2018_Oct_12_1116,60.2510608578,test_experiment,001,pilot_shivani,
,,,,,,0,0,0,0,31,0,31,0,,,,,2,1.28436680837,2,1.86752777232,2018_Oct_12_1116,60.2510608578,test_experiment,001,pilot_shivani,
1,long,distractor,t2,I,33,0,0,0,0,32,0,32,0,0,0,0,0,,,,,2018_Oct_12_1116,60.2510608578,test_experiment,001,pilot_shivani,
2,long,distractor,t2,X,33,0,0,0,0,32,0,32,0,0,1,1,1,,,,,2018_Oct_12_1116,60.2510608578,test_experiment,001,pilot_shivani,
3,long,distractor,t2,H,33,0,0,0,0,32,0,32,0,0,2,2,2,,,,,2018_Oct_12_1116,60.2510608578,test_experiment,001,pilot_shivani,
4,long,distractor,t2,U,33,0,0,0,0,32,0,32,0,0,3,3,3,,,,,2018_Oct_12_1116,60.2510608578,test_experiment,001,pilot_shivani,
5,long,distractor,t2,Y,33,0,0,0,0,32,0,32,0,0,4,4,4,,,,,2018_Oct_12_1116,60.2510608578,test_experiment,001,pilot_shivani,
6,long,target,t2,7,33,0,0,0,0,32,0,32,0,0,5,5,5,,,,,2018_Oct_12_1116,60.2510608578,test_experiment,001,pilot_shivani,
7,long,distractor,t2,X,33,0,0,0,0,32,0,32,0,0,6,6,6,,,,,2018_Oct_12_1116,60.2510608578,test_experiment,001,pilot_shivani,
8,long,distractor,t2,H,33,0,0,0,0,32,0,32,0,0,7,7,7,,,,,2018_Oct_12_1116,60.2510608578,test_experiment,001,pilot_shivani,
9,long,distractor,t2,A,33,0,0,0,0,32,0,32,0,0,8,8,8,,,,,2018_Oct_12_1116,60.2510608578,test_experiment,001,pilot_shivani,
10,long,distractor,t2,G,33,0,0,0,0,32,0,32,0,0,9,9,9,,,,,2018_Oct_12_1116,60.2510608578,test_experiment,001,pilot_shivani,
11,long,distractor,t2,J,33,0,0,0,0,32,0,32,0,0,10,10,10,,,,,2018_Oct_12_1116,60.2510608578,test_experiment,001,pilot_shivani,
12,long,distractor,t2,X,33,0,0,0,0,32,0,32,0,0,11,11,11,,,,,2018_Oct_12_1116,60.2510608578,test_experiment,001,pilot_shivani,
13,long,distractor,t2,B,33,0,0,0,0,32,0,32,0,0,12,12,12,,,,,2018_Oct_12_1116,60.2510608578,test_experiment,001,pilot_shivani,
14,long,target,t2,3,33,0,0,0,0,32,0,32,0,0,13,13,13,,,,,2018_Oct_12_1116,60.2510608578,test_experiment,001,pilot_shivani,
15,long,distractor,t2,K,33,0,0,0,0,32,0,32,0,0,14,14,14,,,,,2018_Oct_12_1116,60.2510608578,test_experiment,001,pilot_shivani,
,,,,,,0,0,0,0,32,0,32,0,,,,,7,1.23448525358,7,0.483710342553,2018_Oct_12_1116,60.2510608578,test_experiment,001,pilot_shivani,
1,short,distractor,t1,Y,34,0,0,0,0,33,0,33,0,0,0,0,0,,,,,2018_Oct_12_1116,60.2510608578,test_experiment,001,pilot_shivani,
2,short,distractor,t1,V,34,0,0,0,0,33,0,33,0,0,1,1,1,,,,,2018_Oct_12_1116,60.2510608578,test_experiment,001,pilot_shivani,
3,short,distractor,t1,G,34,0,0,0,0,33,0,33,0,0,2,2,2,,,,,2018_Oct_12_1116,60.2510608578,test_experiment,001,pilot_shivani,
4,short,distractor,t1,I,34,0,0,0,0,33,0,33,0,0,3,3,3,,,,,2018_Oct_12_1116,60.2510608578,test_experiment,001,pilot_shivani,
5,short,distractor,t1,R,34,0,0,0,0,33,0,33,0,0,4,4,4,,,,,2018_Oct_12_1116,60.2510608578,test_experiment,001,pilot_shivani,
6,short,distractor,t1,Y,34,0,0,0,0,33,0,33,0,0,5,5,5,,,,,2018_Oct_12_1116,60.2510608578,test_experiment,001,pilot_shivani,
7,short,distractor,t1,C,34,0,0,0,0,33,0,33,0,0,6,6,6,,,,,2018_Oct_12_1116,60.2510608578,test_experiment,001,pilot_shivani,
8,short,distractor,t1,G,34,0,0,0,0,33,0,33,0,0,7,7,7,,,,,2018_Oct_12_1116,60.2510608578,test_experiment,001,pilot_shivani,
9,short,distractor,t1,F,34,0,0,0,0,33,0,33,0,0,8,8,8,,,,,2018_Oct_12_1116,60.2510608578,test_experiment,001,pilot_shivani,
10,short,target,t1,3,34,0,0,0,0,33,0,33,0,0,9,9,9,,,,,2018_Oct_12_1116,60.2510608578,test_experiment,001,pilot_shivani,
11,short,distractor,t1,H,34,0,0,0,0,33,0,33,0,0,10,10,10,,,,,2018_Oct_12_1116,60.2510608578,test_experiment,001,pilot_shivani,
12,short,distractor,t1,S,34,0,0,0,0,33,0,33,0,0,11,11,11,,,,,2018_Oct_12_1116,60.2510608578,test_experiment,001,pilot_shivani,
13,short,distractor,t1,B,34,0,0,0,0,33,0,33,0,0,12,12,12,,,,,2018_Oct_12_1116,60.2510608578,test_experiment,001,pilot_shivani,
14,short,mask,t1, ,34,0,0,0,0,33,0,33,0,0,13,13,13,,,,,2018_Oct_12_1116,60.2510608578,test_experiment,001,pilot_shivani,
15,short,distractor,t1,N,34,0,0,0,0,33,0,33,0,0,14,14,14,,,,,2018_Oct_12_1116,60.2510608578,test_experiment,001,pilot_shivani,
16,short,distractor,t1,S,34,0,0,0,0,33,0,33,0,0,15,15,15,,,,,2018_Oct_12_1116,60.2510608578,test_experiment,001,pilot_shivani,
17,short,distractor,t1,P,34,0,0,0,0,33,0,33,0,0,16,16,16,,,,,2018_Oct_12_1116,60.2510608578,test_experiment,001,pilot_shivani,
18,short,distractor,t1,N,34,0,0,0,0,33,0,33,0,0,17,17,17,,,,,2018_Oct_12_1116,60.2510608578,test_experiment,001,pilot_shivani,
,,,,,,0,0,0,0,33,0,33,0,,,,,3,0.850778096006,3,0.550350587815,2018_Oct_12_1116,60.2510608578,test_experiment,001,pilot_shivani,
1,short,distractor,t1,B,35,0,0,0,0,34,0,34,0,0,0,0,0,,,,,2018_Oct_12_1116,60.2510608578,test_experiment,001,pilot_shivani,
2,short,distractor,t1,K,35,0,0,0,0,34,0,34,0,0,1,1,1,,,,,2018_Oct_12_1116,60.2510608578,test_experiment,001,pilot_shivani,
3,short,distractor,t1,H,35,0,0,0,0,34,0,34,0,0,2,2,2,,,,,2018_Oct_12_1116,60.2510608578,test_experiment,001,pilot_shivani,
4,short,distractor,t1,L,35,0,0,0,0,34,0,34,0,0,3,3,3,,,,,2018_Oct_12_1116,60.2510608578,test_experiment,001,pilot_shivani,
5,short,distractor,t1,T,35,0,0,0,0,34,0,34,0,0,4,4,4,,,,,2018_Oct_12_1116,60.2510608578,test_experiment,001,pilot_shivani,
6,short,distractor,t1,M,35,0,0,0,0,34,0,34,0,0,5,5,5,,,,,2018_Oct_12_1116,60.2510608578,test_experiment,001,pilot_shivani,
7,short,distractor,t1,E,35,0,0,0,0,34,0,34,0,0,6,6,6,,,,,2018_Oct_12_1116,60.2510608578,test_experiment,001,pilot_shivani,
8,short,distractor,t1,K,35,0,0,0,0,34,0,34,0,0,7,7,7,,,,,2018_Oct_12_1116,60.2510608578,test_experiment,001,pilot_shivani,
9,short,distractor,t1,V,35,0,0,0,0,34,0,34,0,0,8,8,8,,,,,2018_Oct_12_1116,60.2510608578,test_experiment,001,pilot_shivani,
10,short,distractor,t1,I,35,0,0,0,0,34,0,34,0,0,9,9,9,,,,,2018_Oct_12_1116,60.2510608578,test_experiment,001,pilot_shivani,
11,short,distractor,t1,X,35,0,0,0,0,34,0,34,0,0,10,10,10,,,,,2018_Oct_12_1116,60.2510608578,test_experiment,001,pilot_shivani,
12,short,target,t1,4,35,0,0,0,0,34,0,34,0,0,11,11,11,,,,,2018_Oct_12_1116,60.2510608578,test_experiment,001,pilot_shivani,
13,short,distractor,t1,D,35,0,0,0,0,34,0,34,0,0,12,12,12,,,,,2018_Oct_12_1116,60.2510608578,test_experiment,001,pilot_shivani,
14,short,distractor,t1,Z,35,0,0,0,0,34,0,34,0,0,13,13,13,,,,,2018_Oct_12_1116,60.2510608578,test_experiment,001,pilot_shivani,
15,short,distractor,t1,Y,35,0,0,0,0,34,0,34,0,0,14,14,14,,,,,2018_Oct_12_1116,60.2510608578,test_experiment,001,pilot_shivani,
16,short,mask,t1, ,35,0,0,0,0,34,0,34,0,0,15,15,15,,,,,2018_Oct_12_1116,60.2510608578,test_experiment,001,pilot_shivani,
17,short,distractor,t1,J,35,0,0,0,0,34,0,34,0,0,16,16,16,,,,,2018_Oct_12_1116,60.2510608578,test_experiment,001,pilot_shivani,
,,,,,,0,0,0,0,34,0,34,0,,,,,4,0.75211861101,4,0.53538780415,2018_Oct_12_1116,60.2510608578,test_experiment,001,pilot_shivani,
1,short,distractor,t1,T,36,0,0,0,0,35,0,35,0,0,0,0,0,,,,,2018_Oct_12_1116,60.2510608578,test_experiment,001,pilot_shivani,
2,short,distractor,t1,G,36,0,0,0,0,35,0,35,0,0,1,1,1,,,,,2018_Oct_12_1116,60.2510608578,test_experiment,001,pilot_shivani,
3,short,distractor,t1,A,36,0,0,0,0,35,0,35,0,0,2,2,2,,,,,2018_Oct_12_1116,60.2510608578,test_experiment,001,pilot_shivani,
4,short,distractor,t1,L,36,0,0,0,0,35,0,35,0,0,3,3,3,,,,,2018_Oct_12_1116,60.2510608578,test_experiment,001,pilot_shivani,
5,short,target,t1,1,36,0,0,0,0,35,0,35,0,0,4,4,4,,,,,2018_Oct_12_1116,60.2510608578,test_experiment,001,pilot_shivani,
6,short,distractor,t1,Z,36,0,0,0,0,35,0,35,0,0,5,5,5,,,,,2018_Oct_12_1116,60.2510608578,test_experiment,001,pilot_shivani,
7,short,distractor,t1,T,36,0,0,0,0,35,0,35,0,0,6,6,6,,,,,2018_Oct_12_1116,60.2510608578,test_experiment,001,pilot_shivani,
8,short,distractor,t1,Z,36,0,0,0,0,35,0,35,0,0,7,7,7,,,,,2018_Oct_12_1116,60.2510608578,test_experiment,001,pilot_shivani,
9,short,mask,t1, ,36,0,0,0,0,35,0,35,0,0,8,8,8,,,,,2018_Oct_12_1116,60.2510608578,test_experiment,001,pilot_shivani,
10,short,distractor,t1,Z,36,0,0,0,0,35,0,35,0,0,9,9,9,,,,,2018_Oct_12_1116,60.2510608578,test_experiment,001,pilot_shivani,
11,short,distractor,t1,S,36,0,0,0,0,35,0,35,0,0,10,10,10,,,,,2018_Oct_12_1116,60.2510608578,test_experiment,001,pilot_shivani,
12,short,distractor,t1,T,36,0,0,0,0,35,0,35,0,0,11,11,11,,,,,2018_Oct_12_1116,60.2510608578,test_experiment,001,pilot_shivani,
13,short,distractor,t1,Z,36,0,0,0,0,35,0,35,0,0,12,12,12,,,,,2018_Oct_12_1116,60.2510608578,test_experiment,001,pilot_shivani,
14,short,distractor,t1,V,36,0,0,0,0,35,0,35,0,0,13,13,13,,,,,2018_Oct_12_1116,60.2510608578,test_experiment,001,pilot_shivani,
15,short,distractor,t1,R,36,0,0,0,0,35,0,35,0,0,14,14,14,,,,,2018_Oct_12_1116,60.2510608578,test_experiment,001,pilot_shivani,
16,short,distractor,t1,X,36,0,0,0,0,35,0,35,0,0,15,15,15,,,,,2018_Oct_12_1116,60.2510608578,test_experiment,001,pilot_shivani,
,,,,,,0,0,0,0,35,0,35,0,,,,,1,0.784017963335,1,0.500769202132,2018_Oct_12_1116,60.2510608578,test_experiment,001,pilot_shivani,
1,long,distractor,t2,S,37,0,0,0,0,36,0,36,0,0,0,0,0,,,,,2018_Oct_12_1116,60.2510608578,test_experiment,001,pilot_shivani,
2,long,distractor,t2,R,37,0,0,0,0,36,0,36,0,0,1,1,1,,,,,2018_Oct_12_1116,60.2510608578,test_experiment,001,pilot_shivani,
3,long,target,t2,1,37,0,0,0,0,36,0,36,0,0,2,2,2,,,,,2018_Oct_12_1116,60.2510608578,test_experiment,001,pilot_shivani,
4,long,distractor,t2,X,37,0,0,0,0,36,0,36,0,0,3,3,3,,,,,2018_Oct_12_1116,60.2510608578,test_experiment,001,pilot_shivani,
5,long,distractor,t2,O,37,0,0,0,0,36,0,36,0,0,4,4,4,,,,,2018_Oct_12_1116,60.2510608578,test_experiment,001,pilot_shivani,
6,long,distractor,t2,V,37,0,0,0,0,36,0,36,0,0,5,5,5,,,,,2018_Oct_12_1116,60.2510608578,test_experiment,001,pilot_shivani,
7,long,distractor,t2,S,37,0,0,0,0,36,0,36,0,0,6,6,6,,,,,2018_Oct_12_1116,60.2510608578,test_experiment,001,pilot_shivani,
8,long,distractor,t2,A,37,0,0,0,0,36,0,36,0,0,7,7,7,,,,,2018_Oct_12_1116,60.2510608578,test_experiment,001,pilot_shivani,
9,long,distractor,t2,T,37,0,0,0,0,36,0,36,0,0,8,8,8,,,,,2018_Oct_12_1116,60.2510608578,test_experiment,001,pilot_shivani,
10,long,distractor,t2,Y,37,0,0,0,0,36,0,36,0,0,9,9,9,,,,,2018_Oct_12_1116,60.2510608578,test_experiment,001,pilot_shivani,
11,long,target,t2,7,37,0,0,0,0,36,0,36,0,0,10,10,10,,,,,2018_Oct_12_1116,60.2510608578,test_experiment,001,pilot_shivani,
12,long,distractor,t2,C,37,0,0,0,0,36,0,36,0,0,11,11,11,,,,,2018_Oct_12_1116,60.2510608578,test_experiment,001,pilot_shivani,
13,long,distractor,t2,I,37,0,0,0,0,36,0,36,0,0,12,12,12,,,,,2018_Oct_12_1116,60.2510608578,test_experiment,001,pilot_shivani,
14,long,distractor,t2,D,37,0,0,0,0,36,0,36,0,0,13,13,13,,,,,2018_Oct_12_1116,60.2510608578,test_experiment,001,pilot_shivani,
15,long,distractor,t2,E,37,0,0,0,0,36,0,36,0,0,14,14,14,,,,,2018_Oct_12_1116,60.2510608578,test_experiment,001,pilot_shivani,
16,long,distractor,t2,X,37,0,0,0,0,36,0,36,0,0,15,15,15,,,,,2018_Oct_12_1116,60.2510608578,test_experiment,001,pilot_shivani,
17,long,distractor,t2,X,37,0,0,0,0,36,0,36,0,0,16,16,16,,,,,2018_Oct_12_1116,60.2510608578,test_experiment,001,pilot_shivani,
,,,,,,0,0,0,0,36,0,36,0,,,,,1,0.350870039663,1,0.750451605767,2018_Oct_12_1116,60.2510608578,test_experiment,001,pilot_shivani,
1,short,distractor,t2,O,38,0,0,0,0,37,0,37,0,0,0,0,0,,,,,2018_Oct_12_1116,60.2510608578,test_experiment,001,pilot_shivani,
2,short,distractor,t2,V,38,0,0,0,0,37,0,37,0,0,1,1,1,,,,,2018_Oct_12_1116,60.2510608578,test_experiment,001,pilot_shivani,
3,short,distractor,t2,A,38,0,0,0,0,37,0,37,0,0,2,2,2,,,,,2018_Oct_12_1116,60.2510608578,test_experiment,001,pilot_shivani,
4,short,distractor,t2,O,38,0,0,0,0,37,0,37,0,0,3,3,3,,,,,2018_Oct_12_1116,60.2510608578,test_experiment,001,pilot_shivani,
5,short,distractor,t2,Q,38,0,0,0,0,37,0,37,0,0,4,4,4,,,,,2018_Oct_12_1116,60.2510608578,test_experiment,001,pilot_shivani,
6,short,distractor,t2,R,38,0,0,0,0,37,0,37,0,0,5,5,5,,,,,2018_Oct_12_1116,60.2510608578,test_experiment,001,pilot_shivani,
7,short,distractor,t2,V,38,0,0,0,0,37,0,37,0,0,6,6,6,,,,,2018_Oct_12_1116,60.2510608578,test_experiment,001,pilot_shivani,
8,short,distractor,t2,O,38,0,0,0,0,37,0,37,0,0,7,7,7,,,,,2018_Oct_12_1116,60.2510608578,test_experiment,001,pilot_shivani,
9,short,distractor,t2,N,38,0,0,0,0,37,0,37,0,0,8,8,8,,,,,2018_Oct_12_1116,60.2510608578,test_experiment,001,pilot_shivani,
10,short,distractor,t2,B,38,0,0,0,0,37,0,37,0,0,9,9,9,,,,,2018_Oct_12_1116,60.2510608578,test_experiment,001,pilot_shivani,
11,short,target,t2,6,38,0,0,0,0,37,0,37,0,0,10,10,10,,,,,2018_Oct_12_1116,60.2510608578,test_experiment,001,pilot_shivani,
12,short,distractor,t2,Z,38,0,0,0,0,37,0,37,0,0,11,11,11,,,,,2018_Oct_12_1116,60.2510608578,test_experiment,001,pilot_shivani,
13,short,distractor,t2,S,38,0,0,0,0,37,0,37,0,0,12,12,12,,,,,2018_Oct_12_1116,60.2510608578,test_experiment,001,pilot_shivani,
14,short,distractor,t2,X,38,0,0,0,0,37,0,37,0,0,13,13,13,,,,,2018_Oct_12_1116,60.2510608578,test_experiment,001,pilot_shivani,
15,short,target,t2,5,38,0,0,0,0,37,0,37,0,0,14,14,14,,,,,2018_Oct_12_1116,60.2510608578,test_experiment,001,pilot_shivani,
16,short,distractor,t2,V,38,0,0,0,0,37,0,37,0,0,15,15,15,,,,,2018_Oct_12_1116,60.2510608578,test_experiment,001,pilot_shivani,
17,short,distractor,t2,F,38,0,0,0,0,37,0,37,0,0,16,16,16,,,,,2018_Oct_12_1116,60.2510608578,test_experiment,001,pilot_shivani,
,,,,,,0,0,0,0,37,0,37,0,,,,,6,0.467696215608,5,0.451042689499,2018_Oct_12_1116,60.2510608578,test_experiment,001,pilot_shivani,
1,short,distractor,t1,V,39,0,0,0,0,38,0,38,0,0,0,0,0,,,,,2018_Oct_12_1116,60.2510608578,test_experiment,001,pilot_shivani,
2,short,distractor,t1,I,39,0,0,0,0,38,0,38,0,0,1,1,1,,,,,2018_Oct_12_1116,60.2510608578,test_experiment,001,pilot_shivani,
3,short,distractor,t1,X,39,0,0,0,0,38,0,38,0,0,2,2,2,,,,,2018_Oct_12_1116,60.2510608578,test_experiment,001,pilot_shivani,
4,short,distractor,t1,B,39,0,0,0,0,38,0,38,0,0,3,3,3,,,,,2018_Oct_12_1116,60.2510608578,test_experiment,001,pilot_shivani,
5,short,target,t1,1,39,0,0,0,0,38,0,38,0,0,4,4,4,,,,,2018_Oct_12_1116,60.2510608578,test_experiment,001,pilot_shivani,
6,short,distractor,t1,Z,39,0,0,0,0,38,0,38,0,0,5,5,5,,,,,2018_Oct_12_1116,60.2510608578,test_experiment,001,pilot_shivani,
7,short,distractor,t1,T,39,0,0,0,0,38,0,38,0,0,6,6,6,,,,,2018_Oct_12_1116,60.2510608578,test_experiment,001,pilot_shivani,
8,short,distractor,t1,P,39,0,0,0,0,38,0,38,0,0,7,7,7,,,,,2018_Oct_12_1116,60.2510608578,test_experiment,001,pilot_shivani,
9,short,mask,t1, ,39,0,0,0,0,38,0,38,0,0,8,8,8,,,,,2018_Oct_12_1116,60.2510608578,test_experiment,001,pilot_shivani,
10,short,distractor,t1,M,39,0,0,0,0,38,0,38,0,0,9,9,9,,,,,2018_Oct_12_1116,60.2510608578,test_experiment,001,pilot_shivani,
11,short,distractor,t1,R,39,0,0,0,0,38,0,38,0,0,10,10,10,,,,,2018_Oct_12_1116,60.2510608578,test_experiment,001,pilot_shivani,
12,short,distractor,t1,K,39,0,0,0,0,38,0,38,0,0,11,11,11,,,,,2018_Oct_12_1116,60.2510608578,test_experiment,001,pilot_shivani,
13,short,distractor,t1,P,39,0,0,0,0,38,0,38,0,0,12,12,12,,,,,2018_Oct_12_1116,60.2510608578,test_experiment,001,pilot_shivani,
14,short,distractor,t1,S,39,0,0,0,0,38,0,38,0,0,13,13,13,,,,,2018_Oct_12_1116,60.2510608578,test_experiment,001,pilot_shivani,
15,short,distractor,t1,N,39,0,0,0,0,38,0,38,0,0,14,14,14,,,,,2018_Oct_12_1116,60.2510608578,test_experiment,001,pilot_shivani,
16,short,distractor,t1,C,39,0,0,0,0,38,0,38,0,0,15,15,15,,,,,2018_Oct_12_1116,60.2510608578,test_experiment,001,pilot_shivani,
17,short,distractor,t1,U,39,0,0,0,0,38,0,38,0,0,16,16,16,,,,,2018_Oct_12_1116,60.2510608578,test_experiment,001,pilot_shivani,
18,short,distractor,t1,T,39,0,0,0,0,38,0,38,0,0,17,17,17,,,,,2018_Oct_12_1116,60.2510608578,test_experiment,001,pilot_shivani,
,,,,,,0,0,0,0,38,0,38,0,,,,,1,0.0676855789497,1,0.601090283832,2018_Oct_12_1116,60.2510608578,test_experiment,001,pilot_shivani,
1,short,distractor,t1,Q,40,0,0,0,0,39,0,39,0,0,0,0,0,,,,,2018_Oct_12_1116,60.2510608578,test_experiment,001,pilot_shivani,
2,short,distractor,t1,V,40,0,0,0,0,39,0,39,0,0,1,1,1,,,,,2018_Oct_12_1116,60.2510608578,test_experiment,001,pilot_shivani,
3,short,distractor,t1,W,40,0,0,0,0,39,0,39,0,0,2,2,2,,,,,2018_Oct_12_1116,60.2510608578,test_experiment,001,pilot_shivani,
4,short,distractor,t1,S,40,0,0,0,0,39,0,39,0,0,3,3,3,,,,,2018_Oct_12_1116,60.2510608578,test_experiment,001,pilot_shivani,
5,short,distractor,t1,D,40,0,0,0,0,39,0,39,0,0,4,4,4,,,,,2018_Oct_12_1116,60.2510608578,test_experiment,001,pilot_shivani,
6,short,distractor,t1,N,40,0,0,0,0,39,0,39,0,0,5,5,5,,,,,2018_Oct_12_1116,60.2510608578,test_experiment,001,pilot_shivani,
7,short,target,t1,3,40,0,0,0,0,39,0,39,0,0,6,6,6,,,,,2018_Oct_12_1116,60.2510608578,test_experiment,001,pilot_shivani,
8,short,distractor,t1,R,40,0,0,0,0,39,0,39,0,0,7,7,7,,,,,2018_Oct_12_1116,60.2510608578,test_experiment,001,pilot_shivani,
9,short,distractor,t1,F,40,0,0,0,0,39,0,39,0,0,8,8,8,,,,,2018_Oct_12_1116,60.2510608578,test_experiment,001,pilot_shivani,
10,short,distractor,t1,T,40,0,0,0,0,39,0,39,0,0,9,9,9,,,,,2018_Oct_12_1116,60.2510608578,test_experiment,001,pilot_shivani,
11,short,mask,t1, ,40,0,0,0,0,39,0,39,0,0,10,10,10,,,,,2018_Oct_12_1116,60.2510608578,test_experiment,001,pilot_shivani,
12,short,distractor,t1,B,40,0,0,0,0,39,0,39,0,0,11,11,11,,,,,2018_Oct_12_1116,60.2510608578,test_experiment,001,pilot_shivani,
13,short,distractor,t1,B,40,0,0,0,0,39,0,39,0,0,12,12,12,,,,,2018_Oct_12_1116,60.2510608578,test_experiment,001,pilot_shivani,
14,short,distractor,t1,Y,40,0,0,0,0,39,0,39,0,0,13,13,13,,,,,2018_Oct_12_1116,60.2510608578,test_experiment,001,pilot_shivani,
15,short,distractor,t1,M,40,0,0,0,0,39,0,39,0,0,14,14,14,,,,,2018_Oct_12_1116,60.2510608578,test_experiment,001,pilot_shivani,
16,short,distractor,t1,V,40,0,0,0,0,39,0,39,0,0,15,15,15,,,,,2018_Oct_12_1116,60.2510608578,test_experiment,001,pilot_shivani,
,,,,,,0,0,0,0,39,0,39,0,,,,,3,0.784523954033,3,0.534483991563,2018_Oct_12_1116,60.2510608578,test_experiment,001,pilot_shivani,
1,long,target,t2,7,41,0,0,0,0,40,0,40,0,0,0,0,0,,,,,2018_Oct_12_1116,60.2510608578,test_experiment,001,pilot_shivani,
2,long,distractor,t2,Q,41,0,0,0,0,40,0,40,0,0,1,1,1,,,,,2018_Oct_12_1116,60.2510608578,test_experiment,001,pilot_shivani,
3,long,distractor,t2,D,41,0,0,0,0,40,0,40,0,0,2,2,2,,,,,2018_Oct_12_1116,60.2510608578,test_experiment,001,pilot_shivani,
4,long,distractor,t2,F,41,0,0,0,0,40,0,40,0,0,3,3,3,,,,,2018_Oct_12_1116,60.2510608578,test_experiment,001,pilot_shivani,
5,long,distractor,t2,J,41,0,0,0,0,40,0,40,0,0,4,4,4,,,,,2018_Oct_12_1116,60.2510608578,test_experiment,001,pilot_shivani,
6,long,distractor,t2,R,41,0,0,0,0,40,0,40,0,0,5,5,5,,,,,2018_Oct_12_1116,60.2510608578,test_experiment,001,pilot_shivani,
7,long,distractor,t2,Y,41,0,0,0,0,40,0,40,0,0,6,6,6,,,,,2018_Oct_12_1116,60.2510608578,test_experiment,001,pilot_shivani,
8,long,distractor,t2,E,41,0,0,0,0,40,0,40,0,0,7,7,7,,,,,2018_Oct_12_1116,60.2510608578,test_experiment,001,pilot_shivani,
9,long,target,t2,4,41,0,0,0,0,40,0,40,0,0,8,8,8,,,,,2018_Oct_12_1116,60.2510608578,test_experiment,001,pilot_shivani,
10,long,distractor,t2,C,41,0,0,0,0,40,0,40,0,0,9,9,9,,,,,2018_Oct_12_1116,60.2510608578,test_experiment,001,pilot_shivani,
11,long,distractor,t2,M,41,0,0,0,0,40,0,40,0,0,10,10,10,,,,,2018_Oct_12_1116,60.2510608578,test_experiment,001,pilot_shivani,
12,long,distractor,t2,K,41,0,0,0,0,40,0,40,0,0,11,11,11,,,,,2018_Oct_12_1116,60.2510608578,test_experiment,001,pilot_shivani,
13,long,distractor,t2,G,41,0,0,0,0,40,0,40,0,0,12,12,12,,,,,2018_Oct_12_1116,60.2510608578,test_experiment,001,pilot_shivani,
14,long,distractor,t2,P,41,0,0,0,0,40,0,40,0,0,13,13,13,,,,,2018_Oct_12_1116,60.2510608578,test_experiment,001,pilot_shivani,
15,long,distractor,t2,E,41,0,0,0,0,40,0,40,0,0,14,14,14,,,,,2018_Oct_12_1116,60.2510608578,test_experiment,001,pilot_shivani,
,,,,,,0,0,0,0,40,0,40,0,,,,,7,0.71765745501,4,0.568767569959,2018_Oct_12_1116,60.2510608578,test_experiment,001,pilot_shivani,
1,short,distractor,t1,U,42,0,0,0,0,41,0,41,0,0,0,0,0,,,,,2018_Oct_12_1116,60.2510608578,test_experiment,001,pilot_shivani,
2,short,distractor,t1,G,42,0,0,0,0,41,0,41,0,0,1,1,1,,,,,2018_Oct_12_1116,60.2510608578,test_experiment,001,pilot_shivani,
3,short,distractor,t1,C,42,0,0,0,0,41,0,41,0,0,2,2,2,,,,,2018_Oct_12_1116,60.2510608578,test_experiment,001,pilot_shivani,
4,short,target,t1,5,42,0,0,0,0,41,0,41,0,0,3,3,3,,,,,2018_Oct_12_1116,60.2510608578,test_experiment,001,pilot_shivani,
5,short,distractor,t1,A,42,0,0,0,0,41,0,41,0,0,4,4,4,,,,,2018_Oct_12_1116,60.2510608578,test_experiment,001,pilot_shivani,
6,short,distractor,t1,V,42,0,0,0,0,41,0,41,0,0,5,5,5,,,,,2018_Oct_12_1116,60.2510608578,test_experiment,001,pilot_shivani,
7,short,distractor,t1,E,42,0,0,0,0,41,0,41,0,0,6,6,6,,,,,2018_Oct_12_1116,60.2510608578,test_experiment,001,pilot_shivani,
8,short,mask,t1, ,42,0,0,0,0,41,0,41,0,0,7,7,7,,,,,2018_Oct_12_1116,60.2510608578,test_experiment,001,pilot_shivani,
9,short,distractor,t1,D,42,0,0,0,0,41,0,41,0,0,8,8,8,,,,,2018_Oct_12_1116,60.2510608578,test_experiment,001,pilot_shivani,
10,short,distractor,t1,S,42,0,0,0,0,41,0,41,0,0,9,9,9,,,,,2018_Oct_12_1116,60.2510608578,test_experiment,001,pilot_shivani,
11,short,distractor,t1,V,42,0,0,0,0,41,0,41,0,0,10,10,10,,,,,2018_Oct_12_1116,60.2510608578,test_experiment,001,pilot_shivani,
12,short,distractor,t1,T,42,0,0,0,0,41,0,41,0,0,11,11,11,,,,,2018_Oct_12_1116,60.2510608578,test_experiment,001,pilot_shivani,
13,short,distractor,t1,B,42,0,0,0,0,41,0,41,0,0,12,12,12,,,,,2018_Oct_12_1116,60.2510608578,test_experiment,001,pilot_shivani,
14,short,distractor,t1,S,42,0,0,0,0,41,0,41,0,0,13,13,13,,,,,2018_Oct_12_1116,60.2510608578,test_experiment,001,pilot_shivani,
15,short,distractor,t1,M,42,0,0,0,0,41,0,41,0,0,14,14,14,,,,,2018_Oct_12_1116,60.2510608578,test_experiment,001,pilot_shivani,
16,short,distractor,t1,V,42,0,0,0,0,41,0,41,0,0,15,15,15,,,,,2018_Oct_12_1116,60.2510608578,test_experiment,001,pilot_shivani,
17,short,distractor,t1,Y,42,0,0,0,0,41,0,41,0,0,16,16,16,,,,,2018_Oct_12_1116,60.2510608578,test_experiment,001,pilot_shivani,
18,short,distractor,t1,V,42,0,0,0,0,41,0,41,0,0,17,17,17,,,,,2018_Oct_12_1116,60.2510608578,test_experiment,001,pilot_shivani,
,,,,,,0,0,0,0,41,0,41,0,,,,,5,0.550863489509,5,0.551183189149,2018_Oct_12_1116,60.2510608578,test_experiment,001,pilot_shivani,
1,long,distractor,t2,H,43,0,0,0,0,42,0,42,0,0,0,0,0,,,,,2018_Oct_12_1116,60.2510608578,test_experiment,001,pilot_shivani,
2,long,distractor,t2,R,43,0,0,0,0,42,0,42,0,0,1,1,1,,,,,2018_Oct_12_1116,60.2510608578,test_experiment,001,pilot_shivani,
3,long,distractor,t2,Y,43,0,0,0,0,42,0,42,0,0,2,2,2,,,,,2018_Oct_12_1116,60.2510608578,test_experiment,001,pilot_shivani,
4,long,distractor,t2,Z,43,0,0,0,0,42,0,42,0,0,3,3,3,,,,,2018_Oct_12_1116,60.2510608578,test_experiment,001,pilot_shivani,
5,long,target,t2,4,43,0,0,0,0,42,0,42,0,0,4,4,4,,,,,2018_Oct_12_1116,60.2510608578,test_experiment,001,pilot_shivani,
6,long,distractor,t2,O,43,0,0,0,0,42,0,42,0,0,5,5,5,,,,,2018_Oct_12_1116,60.2510608578,test_experiment,001,pilot_shivani,
7,long,distractor,t2,R,43,0,0,0,0,42,0,42,0,0,6,6,6,,,,,2018_Oct_12_1116,60.2510608578,test_experiment,001,pilot_shivani,
8,long,distractor,t2,L,43,0,0,0,0,42,0,42,0,0,7,7,7,,,,,2018_Oct_12_1116,60.2510608578,test_experiment,001,pilot_shivani,
9,long,distractor,t2,Y,43,0,0,0,0,42,0,42,0,0,8,8,8,,,,,2018_Oct_12_1116,60.2510608578,test_experiment,001,pilot_shivani,
10,long,distractor,t2,M,43,0,0,0,0,42,0,42,0,0,9,9,9,,,,,2018_Oct_12_1116,60.2510608578,test_experiment,001,pilot_shivani,
11,long,distractor,t2,A,43,0,0,0,0,42,0,42,0,0,10,10,10,,,,,2018_Oct_12_1116,60.2510608578,test_experiment,001,pilot_shivani,
12,long,distractor,t2,E,43,0,0,0,0,42,0,42,0,0,11,11,11,,,,,2018_Oct_12_1116,60.2510608578,test_experiment,001,pilot_shivani,
13,long,target,t2,7,43,0,0,0,0,42,0,42,0,0,12,12,12,,,,,2018_Oct_12_1116,60.2510608578,test_experiment,001,pilot_shivani,
14,long,distractor,t2,H,43,0,0,0,0,42,0,42,0,0,13,13,13,,,,,2018_Oct_12_1116,60.2510608578,test_experiment,001,pilot_shivani,
15,long,distractor,t2,W,43,0,0,0,0,42,0,42,0,0,14,14,14,,,,,2018_Oct_12_1116,60.2510608578,test_experiment,001,pilot_shivani,
16,long,distractor,t2,U,43,0,0,0,0,42,0,42,0,0,15,15,15,,,,,2018_Oct_12_1116,60.2510608578,test_experiment,001,pilot_shivani,
17,long,distractor,t2,T,43,0,0,0,0,42,0,42,0,0,16,16,16,,,,,2018_Oct_12_1116,60.2510608578,test_experiment,001,pilot_shivani,
18,long,distractor,t2,C,43,0,0,0,0,42,0,42,0,0,17,17,17,,,,,2018_Oct_12_1116,60.2510608578,test_experiment,001,pilot_shivani,
,,,,,,0,0,0,0,42,0,42,0,,,,,4,0.85076637764,7,1.42023223895,2018_Oct_12_1116,60.2510608578,test_experiment,001,pilot_shivani,
1,long,distractor,t2,W,44,0,0,0,0,43,0,43,0,0,0,0,0,,,,,2018_Oct_12_1116,60.2510608578,test_experiment,001,pilot_shivani,
2,long,distractor,t2,Z,44,0,0,0,0,43,0,43,0,0,1,1,1,,,,,2018_Oct_12_1116,60.2510608578,test_experiment,001,pilot_shivani,
3,long,target,t2,1,44,0,0,0,0,43,0,43,0,0,2,2,2,,,,,2018_Oct_12_1116,60.2510608578,test_experiment,001,pilot_shivani,
4,long,distractor,t2,G,44,0,0,0,0,43,0,43,0,0,3,3,3,,,,,2018_Oct_12_1116,60.2510608578,test_experiment,001,pilot_shivani,
5,long,distractor,t2,J,44,0,0,0,0,43,0,43,0,0,4,4,4,,,,,2018_Oct_12_1116,60.2510608578,test_experiment,001,pilot_shivani,
6,long,distractor,t2,T,44,0,0,0,0,43,0,43,0,0,5,5,5,,,,,2018_Oct_12_1116,60.2510608578,test_experiment,001,pilot_shivani,
7,long,distractor,t2,H,44,0,0,0,0,43,0,43,0,0,6,6,6,,,,,2018_Oct_12_1116,60.2510608578,test_experiment,001,pilot_shivani,
8,long,distractor,t2,P,44,0,0,0,0,43,0,43,0,0,7,7,7,,,,,2018_Oct_12_1116,60.2510608578,test_experiment,001,pilot_shivani,
9,long,distractor,t2,C,44,0,0,0,0,43,0,43,0,0,8,8,8,,,,,2018_Oct_12_1116,60.2510608578,test_experiment,001,pilot_shivani,
10,long,distractor,t2,R,44,0,0,0,0,43,0,43,0,0,9,9,9,,,,,2018_Oct_12_1116,60.2510608578,test_experiment,001,pilot_shivani,
11,long,target,t2,6,44,0,0,0,0,43,0,43,0,0,10,10,10,,,,,2018_Oct_12_1116,60.2510608578,test_experiment,001,pilot_shivani,
12,long,distractor,t2,Z,44,0,0,0,0,43,0,43,0,0,11,11,11,,,,,2018_Oct_12_1116,60.2510608578,test_experiment,001,pilot_shivani,
13,long,distractor,t2,I,44,0,0,0,0,43,0,43,0,0,12,12,12,,,,,2018_Oct_12_1116,60.2510608578,test_experiment,001,pilot_shivani,
14,long,distractor,t2,A,44,0,0,0,0,43,0,43,0,0,13,13,13,,,,,2018_Oct_12_1116,60.2510608578,test_experiment,001,pilot_shivani,
15,long,distractor,t2,B,44,0,0,0,0,43,0,43,0,0,14,14,14,,,,,2018_Oct_12_1116,60.2510608578,test_experiment,001,pilot_shivani,
16,long,distractor,t2,C,44,0,0,0,0,43,0,43,0,0,15,15,15,,,,,2018_Oct_12_1116,60.2510608578,test_experiment,001,pilot_shivani,
17,long,distractor,t2,S,44,0,0,0,0,43,0,43,0,0,16,16,16,,,,,2018_Oct_12_1116,60.2510608578,test_experiment,001,pilot_shivani,
18,long,distractor,t2,N,44,0,0,0,0,43,0,43,0,0,17,17,17,,,,,2018_Oct_12_1116,60.2510608578,test_experiment,001,pilot_shivani,
,,,,,,0,0,0,0,43,0,43,0,,,,,6,0.634775627288,1,0.751178441686,2018_Oct_12_1116,60.2510608578,test_experiment,001,pilot_shivani,
1,short,target,t2,3,45,0,0,0,0,44,0,44,0,0,0,0,0,,,,,2018_Oct_12_1116,60.2510608578,test_experiment,001,pilot_shivani,
2,short,distractor,t2,U,45,0,0,0,0,44,0,44,0,0,1,1,1,,,,,2018_Oct_12_1116,60.2510608578,test_experiment,001,pilot_shivani,
3,short,distractor,t2,L,45,0,0,0,0,44,0,44,0,0,2,2,2,,,,,2018_Oct_12_1116,60.2510608578,test_experiment,001,pilot_shivani,
4,short,distractor,t2,J,45,0,0,0,0,44,0,44,0,0,3,3,3,,,,,2018_Oct_12_1116,60.2510608578,test_experiment,001,pilot_shivani,
5,short,target,t2,7,45,0,0,0,0,44,0,44,0,0,4,4,4,,,,,2018_Oct_12_1116,60.2510608578,test_experiment,001,pilot_shivani,
6,short,distractor,t2,W,45,0,0,0,0,44,0,44,0,0,5,5,5,,,,,2018_Oct_12_1116,60.2510608578,test_experiment,001,pilot_shivani,
7,short,distractor,t2,I,45,0,0,0,0,44,0,44,0,0,6,6,6,,,,,2018_Oct_12_1116,60.2510608578,test_experiment,001,pilot_shivani,
8,short,distractor,t2,D,45,0,0,0,0,44,0,44,0,0,7,7,7,,,,,2018_Oct_12_1116,60.2510608578,test_experiment,001,pilot_shivani,
9,short,distractor,t2,Q,45,0,0,0,0,44,0,44,0,0,8,8,8,,,,,2018_Oct_12_1116,60.2510608578,test_experiment,001,pilot_shivani,
10,short,distractor,t2,Q,45,0,0,0,0,44,0,44,0,0,9,9,9,,,,,2018_Oct_12_1116,60.2510608578,test_experiment,001,pilot_shivani,
11,short,distractor,t2,G,45,0,0,0,0,44,0,44,0,0,10,10,10,,,,,2018_Oct_12_1116,60.2510608578,test_experiment,001,pilot_shivani,
12,short,distractor,t2,E,45,0,0,0,0,44,0,44,0,0,11,11,11,,,,,2018_Oct_12_1116,60.2510608578,test_experiment,001,pilot_shivani,
13,short,distractor,t2,J,45,0,0,0,0,44,0,44,0,0,12,12,12,,,,,2018_Oct_12_1116,60.2510608578,test_experiment,001,pilot_shivani,
14,short,distractor,t2,I,45,0,0,0,0,44,0,44,0,0,13,13,13,,,,,2018_Oct_12_1116,60.2510608578,test_experiment,001,pilot_shivani,
15,short,distractor,t2,K,45,0,0,0,0,44,0,44,0,0,14,14,14,,,,,2018_Oct_12_1116,60.2510608578,test_experiment,001,pilot_shivani,
16,short,distractor,t2,R,45,0,0,0,0,44,0,44,0,0,15,15,15,,,,,2018_Oct_12_1116,60.2510608578,test_experiment,001,pilot_shivani,
17,short,distractor,t2,C,45,0,0,0,0,44,0,44,0,0,16,16,16,,,,,2018_Oct_12_1116,60.2510608578,test_experiment,001,pilot_shivani,
,,,,,,0,0,0,0,44,0,44,0,,,,,3,0.501096413471,3,1.66799584392,2018_Oct_12_1116,60.2510608578,test_experiment,001,pilot_shivani,
1,long,distractor,t2,S,46,0,0,0,0,45,0,45,0,0,0,0,0,,,,,2018_Oct_12_1116,60.2510608578,test_experiment,001,pilot_shivani,
2,long,distractor,t2,R,46,0,0,0,0,45,0,45,0,0,1,1,1,,,,,2018_Oct_12_1116,60.2510608578,test_experiment,001,pilot_shivani,
3,long,distractor,t2,O,46,0,0,0,0,45,0,45,0,0,2,2,2,,,,,2018_Oct_12_1116,60.2510608578,test_experiment,001,pilot_shivani,
4,long,distractor,t2,H,46,0,0,0,0,45,0,45,0,0,3,3,3,,,,,2018_Oct_12_1116,60.2510608578,test_experiment,001,pilot_shivani,
5,long,distractor,t2,E,46,0,0,0,0,45,0,45,0,0,4,4,4,,,,,2018_Oct_12_1116,60.2510608578,test_experiment,001,pilot_shivani,
6,long,target,t2,2,46,0,0,0,0,45,0,45,0,0,5,5,5,,,,,2018_Oct_12_1116,60.2510608578,test_experiment,001,pilot_shivani,
7,long,distractor,t2,L,46,0,0,0,0,45,0,45,0,0,6,6,6,,,,,2018_Oct_12_1116,60.2510608578,test_experiment,001,pilot_shivani,
8,long,distractor,t2,P,46,0,0,0,0,45,0,45,0,0,7,7,7,,,,,2018_Oct_12_1116,60.2510608578,test_experiment,001,pilot_shivani,
9,long,distractor,t2,Q,46,0,0,0,0,45,0,45,0,0,8,8,8,,,,,2018_Oct_12_1116,60.2510608578,test_experiment,001,pilot_shivani,
10,long,distractor,t2,F,46,0,0,0,0,45,0,45,0,0,9,9,9,,,,,2018_Oct_12_1116,60.2510608578,test_experiment,001,pilot_shivani,
11,long,distractor,t2,D,46,0,0,0,0,45,0,45,0,0,10,10,10,,,,,2018_Oct_12_1116,60.2510608578,test_experiment,001,pilot_shivani,
12,long,distractor,t2,B,46,0,0,0,0,45,0,45,0,0,11,11,11,,,,,2018_Oct_12_1116,60.2510608578,test_experiment,001,pilot_shivani,
13,long,distractor,t2,T,46,0,0,0,0,45,0,45,0,0,12,12,12,,,,,2018_Oct_12_1116,60.2510608578,test_experiment,001,pilot_shivani,
14,long,target,t2,5,46,0,0,0,0,45,0,45,0,0,13,13,13,,,,,2018_Oct_12_1116,60.2510608578,test_experiment,001,pilot_shivani,
15,long,distractor,t2,K,46,0,0,0,0,45,0,45,0,0,14,14,14,,,,,2018_Oct_12_1116,60.2510608578,test_experiment,001,pilot_shivani,
,,,,,,0,0,0,0,45,0,45,0,,,,,2,0.866757067968,2,0.46792276972,2018_Oct_12_1116,60.2510608578,test_experiment,001,pilot_shivani,
1,short,distractor,t2,D,47,0,0,0,0,46,0,46,0,0,0,0,0,,,,,2018_Oct_12_1116,60.2510608578,test_experiment,001,pilot_shivani,
2,short,target,t2,2,47,0,0,0,0,46,0,46,0,0,1,1,1,,,,,2018_Oct_12_1116,60.2510608578,test_experiment,001,pilot_shivani,
3,short,distractor,t2,H,47,0,0,0,0,46,0,46,0,0,2,2,2,,,,,2018_Oct_12_1116,60.2510608578,test_experiment,001,pilot_shivani,
4,short,distractor,t2,I,47,0,0,0,0,46,0,46,0,0,3,3,3,,,,,2018_Oct_12_1116,60.2510608578,test_experiment,001,pilot_shivani,
5,short,distractor,t2,J,47,0,0,0,0,46,0,46,0,0,4,4,4,,,,,2018_Oct_12_1116,60.2510608578,test_experiment,001,pilot_shivani,
6,short,target,t2,6,47,0,0,0,0,46,0,46,0,0,5,5,5,,,,,2018_Oct_12_1116,60.2510608578,test_experiment,001,pilot_shivani,
