trial,sep_dur,cond,Tx,stimulus,block,block.thisRepN,block.thisTrialN,block.thisN,block.thisIndex,trials.thisRepN,trials.thisTrialN,trials.thisN,trials.thisIndex,stim.thisRepN,stim.thisTrialN,stim.thisN,stim.thisIndex,usr_input_t1.keys,usr_input_t1.rt,usr_input_t2.keys,usr_input_t2.rt,date,frameRate,expName,session,participant,
1,short,distractor,t1,Z,1,0,0,0,0,0,0,0,0,0,0,0,0,,,,,2018_Oct_12_1213,60.2449532443,test_experiment,002,pilot_shivani,
2,short,distractor,t1,L,1,0,0,0,0,0,0,0,0,0,1,1,1,,,,,2018_Oct_12_1213,60.2449532443,test_experiment,002,pilot_shivani,
3,short,distractor,t1,S,1,0,0,0,0,0,0,0,0,0,2,2,2,,,,,2018_Oct_12_1213,60.2449532443,test_experiment,002,pilot_shivani,
4,short,distractor,t1,P,1,0,0,0,0,0,0,0,0,0,3,3,3,,,,,2018_Oct_12_1213,60.2449532443,test_experiment,002,pilot_shivani,
5,short,target,t1,5,1,0,0,0,0,0,0,0,0,0,4,4,4,,,,,2018_Oct_12_1213,60.2449532443,test_experiment,002,pilot_shivani,
6,short,distractor,t1,N,1,0,0,0,0,0,0,0,0,0,5,5,5,,,,,2018_Oct_12_1213,60.2449532443,test_experiment,002,pilot_shivani,
7,short,distractor,t1,F,1,0,0,0,0,0,0,0,0,0,6,6,6,,,,,2018_Oct_12_1213,60.2449532443,test_experiment,002,pilot_shivani,
8,short,distractor,t1,K,1,0,0,0,0,0,0,0,0,0,7,7,7,,,,,2018_Oct_12_1213,60.2449532443,test_experiment,002,pilot_shivani,
9,short,mask,t1, ,1,0,0,0,0,0,0,0,0,0,8,8,8,,,,,2018_Oct_12_1213,60.2449532443,test_experiment,002,pilot_shivani,
10,short,distractor,t1,Y,1,0,0,0,0,0,0,0,0,0,9,9,9,,,,,2018_Oct_12_1213,60.2449532443,test_experiment,002,pilot_shivani,
11,short,distractor,t1,K,1,0,0,0,0,0,0,0,0,0,10,10,10,,,,,2018_Oct_12_1213,60.2449532443,test_experiment,002,pilot_shivani,
12,short,distractor,t1,S,1,0,0,0,0,0,0,0,0,0,11,11,11,,,,,2018_Oct_12_1213,60.2449532443,test_experiment,002,pilot_shivani,
13,short,distractor,t1,T,1,0,0,0,0,0,0,0,0,0,12,12,12,,,,,2018_Oct_12_1213,60.2449532443,test_experiment,002,pilot_shivani,
14,short,distractor,t1,W,1,0,0,0,0,0,0,0,0,0,13,13,13,,,,,2018_Oct_12_1213,60.2449532443,test_experiment,002,pilot_shivani,
15,short,distractor,t1,H,1,0,0,0,0,0,0,0,0,0,14,14,14,,,,,2018_Oct_12_1213,60.2449532443,test_experiment,002,pilot_shivani,
,,,,,,0,0,0,0,0,0,0,0,,,,,1,0.00185209442861,7,0.352122396813,2018_Oct_12_1213,60.2449532443,test_experiment,002,pilot_shivani,
1,short,target,t1,8,2,0,0,0,0,1,0,1,0,0,0,0,0,,,,,2018_Oct_12_1213,60.2449532443,test_experiment,002,pilot_shivani,
2,short,distractor,t1,J,2,0,0,0,0,1,0,1,0,0,1,1,1,,,,,2018_Oct_12_1213,60.2449532443,test_experiment,002,pilot_shivani,
3,short,distractor,t1,H,2,0,0,0,0,1,0,1,0,0,2,2,2,,,,,2018_Oct_12_1213,60.2449532443,test_experiment,002,pilot_shivani,
4,short,distractor,t1,F,2,0,0,0,0,1,0,1,0,0,3,3,3,,,,,2018_Oct_12_1213,60.2449532443,test_experiment,002,pilot_shivani,
5,short,mask,t1, ,2,0,0,0,0,1,0,1,0,0,4,4,4,,,,,2018_Oct_12_1213,60.2449532443,test_experiment,002,pilot_shivani,
6,short,distractor,t1,O,2,0,0,0,0,1,0,1,0,0,5,5,5,,,,,2018_Oct_12_1213,60.2449532443,test_experiment,002,pilot_shivani,
7,short,distractor,t1,M,2,0,0,0,0,1,0,1,0,0,6,6,6,,,,,2018_Oct_12_1213,60.2449532443,test_experiment,002,pilot_shivani,
8,short,distractor,t1,A,2,0,0,0,0,1,0,1,0,0,7,7,7,,,,,2018_Oct_12_1213,60.2449532443,test_experiment,002,pilot_shivani,
9,short,distractor,t1,V,2,0,0,0,0,1,0,1,0,0,8,8,8,,,,,2018_Oct_12_1213,60.2449532443,test_experiment,002,pilot_shivani,
10,short,distractor,t1,T,2,0,0,0,0,1,0,1,0,0,9,9,9,,,,,2018_Oct_12_1213,60.2449532443,test_experiment,002,pilot_shivani,
11,short,distractor,t1,W,2,0,0,0,0,1,0,1,0,0,10,10,10,,,,,2018_Oct_12_1213,60.2449532443,test_experiment,002,pilot_shivani,
12,short,distractor,t1,R,2,0,0,0,0,1,0,1,0,0,11,11,11,,,,,2018_Oct_12_1213,60.2449532443,test_experiment,002,pilot_shivani,
13,short,distractor,t1,L,2,0,0,0,0,1,0,1,0,0,12,12,12,,,,,2018_Oct_12_1213,60.2449532443,test_experiment,002,pilot_shivani,
14,short,distractor,t1,N,2,0,0,0,0,1,0,1,0,0,13,13,13,,,,,2018_Oct_12_1213,60.2449532443,test_experiment,002,pilot_shivani,
15,short,distractor,t1,N,2,0,0,0,0,1,0,1,0,0,14,14,14,,,,,2018_Oct_12_1213,60.2449532443,test_experiment,002,pilot_shivani,
16,short,distractor,t1,J,2,0,0,0,0,1,0,1,0,0,15,15,15,,,,,2018_Oct_12_1213,60.2449532443,test_experiment,002,pilot_shivani,
,,,,,,0,0,0,0,1,0,1,0,,,,,8,0.218092234572,1,0.701615985483,2018_Oct_12_1213,60.2449532443,test_experiment,002,pilot_shivani,
1,long,distractor,t2,B,3,0,0,0,0,2,0,2,0,0,0,0,0,,,,,2018_Oct_12_1213,60.2449532443,test_experiment,002,pilot_shivani,
2,long,distractor,t2,U,3,0,0,0,0,2,0,2,0,0,1,1,1,,,,,2018_Oct_12_1213,60.2449532443,test_experiment,002,pilot_shivani,
3,long,target,t2,2,3,0,0,0,0,2,0,2,0,0,2,2,2,,,,,2018_Oct_12_1213,60.2449532443,test_experiment,002,pilot_shivani,
4,long,distractor,t2,H,3,0,0,0,0,2,0,2,0,0,3,3,3,,,,,2018_Oct_12_1213,60.2449532443,test_experiment,002,pilot_shivani,
5,long,distractor,t2,K,3,0,0,0,0,2,0,2,0,0,4,4,4,,,,,2018_Oct_12_1213,60.2449532443,test_experiment,002,pilot_shivani,
6,long,distractor,t2,C,3,0,0,0,0,2,0,2,0,0,5,5,5,,,,,2018_Oct_12_1213,60.2449532443,test_experiment,002,pilot_shivani,
7,long,distractor,t2,G,3,0,0,0,0,2,0,2,0,0,6,6,6,,,,,2018_Oct_12_1213,60.2449532443,test_experiment,002,pilot_shivani,
8,long,distractor,t2,W,3,0,0,0,0,2,0,2,0,0,7,7,7,,,,,2018_Oct_12_1213,60.2449532443,test_experiment,002,pilot_shivani,
9,long,distractor,t2,Z,3,0,0,0,0,2,0,2,0,0,8,8,8,,,,,2018_Oct_12_1213,60.2449532443,test_experiment,002,pilot_shivani,
10,long,distractor,t2,M,3,0,0,0,0,2,0,2,0,0,9,9,9,,,,,2018_Oct_12_1213,60.2449532443,test_experiment,002,pilot_shivani,
11,long,target,t2,3,3,0,0,0,0,2,0,2,0,0,10,10,10,,,,,2018_Oct_12_1213,60.2449532443,test_experiment,002,pilot_shivani,
12,long,mask,t2, ,3,0,0,0,0,2,0,2,0,0,11,11,11,,,,,2018_Oct_12_1213,60.2449532443,test_experiment,002,pilot_shivani,
13,long,distractor,t2,H,3,0,0,0,0,2,0,2,0,0,12,12,12,,,,,2018_Oct_12_1213,60.2449532443,test_experiment,002,pilot_shivani,
14,long,distractor,t2,O,3,0,0,0,0,2,0,2,0,0,13,13,13,,,,,2018_Oct_12_1213,60.2449532443,test_experiment,002,pilot_shivani,
15,long,distractor,t2,V,3,0,0,0,0,2,0,2,0,0,14,14,14,,,,,2018_Oct_12_1213,60.2449532443,test_experiment,002,pilot_shivani,
16,long,distractor,t2,B,3,0,0,0,0,2,0,2,0,0,15,15,15,,,,,2018_Oct_12_1213,60.2449532443,test_experiment,002,pilot_shivani,
,,,,,,0,0,0,0,2,0,2,0,,,,,2,0.0347604235867,3,0.385356134502,2018_Oct_12_1213,60.2449532443,test_experiment,002,pilot_shivani,
1,short,target,t1,7,4,0,0,0,0,3,0,3,0,0,0,0,0,,,,,2018_Oct_12_1213,60.2449532443,test_experiment,002,pilot_shivani,
2,short,distractor,t1,I,4,0,0,0,0,3,0,3,0,0,1,1,1,,,,,2018_Oct_12_1213,60.2449532443,test_experiment,002,pilot_shivani,
3,short,distractor,t1,I,4,0,0,0,0,3,0,3,0,0,2,2,2,,,,,2018_Oct_12_1213,60.2449532443,test_experiment,002,pilot_shivani,
4,short,distractor,t1,R,4,0,0,0,0,3,0,3,0,0,3,3,3,,,,,2018_Oct_12_1213,60.2449532443,test_experiment,002,pilot_shivani,
5,short,mask,t1, ,4,0,0,0,0,3,0,3,0,0,4,4,4,,,,,2018_Oct_12_1213,60.2449532443,test_experiment,002,pilot_shivani,
6,short,distractor,t1,F,4,0,0,0,0,3,0,3,0,0,5,5,5,,,,,2018_Oct_12_1213,60.2449532443,test_experiment,002,pilot_shivani,
7,short,distractor,t1,R,4,0,0,0,0,3,0,3,0,0,6,6,6,,,,,2018_Oct_12_1213,60.2449532443,test_experiment,002,pilot_shivani,
8,short,distractor,t1,B,4,0,0,0,0,3,0,3,0,0,7,7,7,,,,,2018_Oct_12_1213,60.2449532443,test_experiment,002,pilot_shivani,
9,short,distractor,t1,M,4,0,0,0,0,3,0,3,0,0,8,8,8,,,,,2018_Oct_12_1213,60.2449532443,test_experiment,002,pilot_shivani,
10,short,distractor,t1,W,4,0,0,0,0,3,0,3,0,0,9,9,9,,,,,2018_Oct_12_1213,60.2449532443,test_experiment,002,pilot_shivani,
11,short,distractor,t1,I,4,0,0,0,0,3,0,3,0,0,10,10,10,,,,,2018_Oct_12_1213,60.2449532443,test_experiment,002,pilot_shivani,
12,short,distractor,t1,V,4,0,0,0,0,3,0,3,0,0,11,11,11,,,,,2018_Oct_12_1213,60.2449532443,test_experiment,002,pilot_shivani,
13,short,distractor,t1,Q,4,0,0,0,0,3,0,3,0,0,12,12,12,,,,,2018_Oct_12_1213,60.2449532443,test_experiment,002,pilot_shivani,
14,short,distractor,t1,M,4,0,0,0,0,3,0,3,0,0,13,13,13,,,,,2018_Oct_12_1213,60.2449532443,test_experiment,002,pilot_shivani,
15,short,distractor,t1,U,4,0,0,0,0,3,0,3,0,0,14,14,14,,,,,2018_Oct_12_1213,60.2449532443,test_experiment,002,pilot_shivani,
16,short,distractor,t1,C,4,0,0,0,0,3,0,3,0,0,15,15,15,,,,,2018_Oct_12_1213,60.2449532443,test_experiment,002,pilot_shivani,
17,short,distractor,t1,Y,4,0,0,0,0,3,0,3,0,0,16,16,16,,,,,2018_Oct_12_1213,60.2449532443,test_experiment,002,pilot_shivani,
,,,,,,0,0,0,0,3,0,3,0,,,,,1,0.167710397742,7,0.951724154525,2018_Oct_12_1213,60.2449532443,test_experiment,002,pilot_shivani,
1,short,distractor,t1,F,5,0,0,0,0,4,0,4,0,0,0,0,0,,,,,2018_Oct_12_1213,60.2449532443,test_experiment,002,pilot_shivani,
2,short,distractor,t1,R,5,0,0,0,0,4,0,4,0,0,1,1,1,,,,,2018_Oct_12_1213,60.2449532443,test_experiment,002,pilot_shivani,
3,short,distractor,t1,C,5,0,0,0,0,4,0,4,0,0,2,2,2,,,,,2018_Oct_12_1213,60.2449532443,test_experiment,002,pilot_shivani,
4,short,target,t1,7,5,0,0,0,0,4,0,4,0,0,3,3,3,,,,,2018_Oct_12_1213,60.2449532443,test_experiment,002,pilot_shivani,
5,short,distractor,t1,C,5,0,0,0,0,4,0,4,0,0,4,4,4,,,,,2018_Oct_12_1213,60.2449532443,test_experiment,002,pilot_shivani,
6,short,distractor,t1,C,5,0,0,0,0,4,0,4,0,0,5,5,5,,,,,2018_Oct_12_1213,60.2449532443,test_experiment,002,pilot_shivani,
7,short,distractor,t1,S,5,0,0,0,0,4,0,4,0,0,6,6,6,,,,,2018_Oct_12_1213,60.2449532443,test_experiment,002,pilot_shivani,
8,short,mask,t1, ,5,0,0,0,0,4,0,4,0,0,7,7,7,,,,,2018_Oct_12_1213,60.2449532443,test_experiment,002,pilot_shivani,
9,short,distractor,t1,S,5,0,0,0,0,4,0,4,0,0,8,8,8,,,,,2018_Oct_12_1213,60.2449532443,test_experiment,002,pilot_shivani,
10,short,distractor,t1,Z,5,0,0,0,0,4,0,4,0,0,9,9,9,,,,,2018_Oct_12_1213,60.2449532443,test_experiment,002,pilot_shivani,
11,short,distractor,t1,U,5,0,0,0,0,4,0,4,0,0,10,10,10,,,,,2018_Oct_12_1213,60.2449532443,test_experiment,002,pilot_shivani,
12,short,distractor,t1,R,5,0,0,0,0,4,0,4,0,0,11,11,11,,,,,2018_Oct_12_1213,60.2449532443,test_experiment,002,pilot_shivani,
13,short,distractor,t1,M,5,0,0,0,0,4,0,4,0,0,12,12,12,,,,,2018_Oct_12_1213,60.2449532443,test_experiment,002,pilot_shivani,
14,short,distractor,t1,X,5,0,0,0,0,4,0,4,0,0,13,13,13,,,,,2018_Oct_12_1213,60.2449532443,test_experiment,002,pilot_shivani,
15,short,distractor,t1,B,5,0,0,0,0,4,0,4,0,0,14,14,14,,,,,2018_Oct_12_1213,60.2449532443,test_experiment,002,pilot_shivani,
16,short,distractor,t1,C,5,0,0,0,0,4,0,4,0,0,15,15,15,,,,,2018_Oct_12_1213,60.2449532443,test_experiment,002,pilot_shivani,
17,short,distractor,t1,A,5,0,0,0,0,4,0,4,0,0,16,16,16,,,,,2018_Oct_12_1213,60.2449532443,test_experiment,002,pilot_shivani,
18,short,distractor,t1,G,5,0,0,0,0,4,0,4,0,0,17,17,17,,,,,2018_Oct_12_1213,60.2449532443,test_experiment,002,pilot_shivani,
,,,,,,0,0,0,0,4,0,4,0,,,,,7,0.78442029201,2,0.385488040745,2018_Oct_12_1213,60.2449532443,test_experiment,002,pilot_shivani,
1,short,distractor,t1,F,6,0,0,0,0,5,0,5,0,0,0,0,0,,,,,2018_Oct_12_1213,60.2449532443,test_experiment,002,pilot_shivani,
2,short,distractor,t1,E,6,0,0,0,0,5,0,5,0,0,1,1,1,,,,,2018_Oct_12_1213,60.2449532443,test_experiment,002,pilot_shivani,
3,short,distractor,t1,D,6,0,0,0,0,5,0,5,0,0,2,2,2,,,,,2018_Oct_12_1213,60.2449532443,test_experiment,002,pilot_shivani,
4,short,distractor,t1,A,6,0,0,0,0,5,0,5,0,0,3,3,3,,,,,2018_Oct_12_1213,60.2449532443,test_experiment,002,pilot_shivani,
5,short,distractor,t1,R,6,0,0,0,0,5,0,5,0,0,4,4,4,,,,,2018_Oct_12_1213,60.2449532443,test_experiment,002,pilot_shivani,
6,short,distractor,t1,T,6,0,0,0,0,5,0,5,0,0,5,5,5,,,,,2018_Oct_12_1213,60.2449532443,test_experiment,002,pilot_shivani,
7,short,distractor,t1,K,6,0,0,0,0,5,0,5,0,0,6,6,6,,,,,2018_Oct_12_1213,60.2449532443,test_experiment,002,pilot_shivani,
8,short,target,t1,5,6,0,0,0,0,5,0,5,0,0,7,7,7,,,,,2018_Oct_12_1213,60.2449532443,test_experiment,002,pilot_shivani,
9,short,distractor,t1,B,6,0,0,0,0,5,0,5,0,0,8,8,8,,,,,2018_Oct_12_1213,60.2449532443,test_experiment,002,pilot_shivani,
10,short,distractor,t1,O,6,0,0,0,0,5,0,5,0,0,9,9,9,,,,,2018_Oct_12_1213,60.2449532443,test_experiment,002,pilot_shivani,
11,short,distractor,t1,R,6,0,0,0,0,5,0,5,0,0,10,10,10,,,,,2018_Oct_12_1213,60.2449532443,test_experiment,002,pilot_shivani,
12,short,mask,t1, ,6,0,0,0,0,5,0,5,0,0,11,11,11,,,,,2018_Oct_12_1213,60.2449532443,test_experiment,002,pilot_shivani,
13,short,distractor,t1,N,6,0,0,0,0,5,0,5,0,0,12,12,12,,,,,2018_Oct_12_1213,60.2449532443,test_experiment,002,pilot_shivani,
14,short,distractor,t1,E,6,0,0,0,0,5,0,5,0,0,13,13,13,,,,,2018_Oct_12_1213,60.2449532443,test_experiment,002,pilot_shivani,
15,short,distractor,t1,O,6,0,0,0,0,5,0,5,0,0,14,14,14,,,,,2018_Oct_12_1213,60.2449532443,test_experiment,002,pilot_shivani,
,,,,,,0,0,0,0,5,0,5,0,,,,,5,0.699948679772,4,0.285404329887,2018_Oct_12_1213,60.2449532443,test_experiment,002,pilot_shivani,
1,long,distractor,t2,E,7,0,0,0,0,6,0,6,0,0,0,0,0,,,,,2018_Oct_12_1213,60.2449532443,test_experiment,002,pilot_shivani,
2,long,target,t2,2,7,0,0,0,0,6,0,6,0,0,1,1,1,,,,,2018_Oct_12_1213,60.2449532443,test_experiment,002,pilot_shivani,
3,long,distractor,t2,M,7,0,0,0,0,6,0,6,0,0,2,2,2,,,,,2018_Oct_12_1213,60.2449532443,test_experiment,002,pilot_shivani,
4,long,distractor,t2,F,7,0,0,0,0,6,0,6,0,0,3,3,3,,,,,2018_Oct_12_1213,60.2449532443,test_experiment,002,pilot_shivani,
5,long,distractor,t2,D,7,0,0,0,0,6,0,6,0,0,4,4,4,,,,,2018_Oct_12_1213,60.2449532443,test_experiment,002,pilot_shivani,
6,long,distractor,t2,P,7,0,0,0,0,6,0,6,0,0,5,5,5,,,,,2018_Oct_12_1213,60.2449532443,test_experiment,002,pilot_shivani,
7,long,distractor,t2,B,7,0,0,0,0,6,0,6,0,0,6,6,6,,,,,2018_Oct_12_1213,60.2449532443,test_experiment,002,pilot_shivani,
8,long,distractor,t2,A,7,0,0,0,0,6,0,6,0,0,7,7,7,,,,,2018_Oct_12_1213,60.2449532443,test_experiment,002,pilot_shivani,
9,long,distractor,t2,M,7,0,0,0,0,6,0,6,0,0,8,8,8,,,,,2018_Oct_12_1213,60.2449532443,test_experiment,002,pilot_shivani,
10,long,target,t2,3,7,0,0,0,0,6,0,6,0,0,9,9,9,,,,,2018_Oct_12_1213,60.2449532443,test_experiment,002,pilot_shivani,
11,long,distractor,t2,T,7,0,0,0,0,6,0,6,0,0,10,10,10,,,,,2018_Oct_12_1213,60.2449532443,test_experiment,002,pilot_shivani,
12,long,distractor,t2,I,7,0,0,0,0,6,0,6,0,0,11,11,11,,,,,2018_Oct_12_1213,60.2449532443,test_experiment,002,pilot_shivani,
13,long,distractor,t2,A,7,0,0,0,0,6,0,6,0,0,12,12,12,,,,,2018_Oct_12_1213,60.2449532443,test_experiment,002,pilot_shivani,
14,long,distractor,t2,N,7,0,0,0,0,6,0,6,0,0,13,13,13,,,,,2018_Oct_12_1213,60.2449532443,test_experiment,002,pilot_shivani,
15,long,distractor,t2,M,7,0,0,0,0,6,0,6,0,0,14,14,14,,,,,2018_Oct_12_1213,60.2449532443,test_experiment,002,pilot_shivani,
16,long,distractor,t2,O,7,0,0,0,0,6,0,6,0,0,15,15,15,,,,,2018_Oct_12_1213,60.2449532443,test_experiment,002,pilot_shivani,
17,long,distractor,t2,H,7,0,0,0,0,6,0,6,0,0,16,16,16,,,,,2018_Oct_12_1213,60.2449532443,test_experiment,002,pilot_shivani,
18,long,distractor,t2,N,7,0,0,0,0,6,0,6,0,0,17,17,17,,,,,2018_Oct_12_1213,60.2449532443,test_experiment,002,pilot_shivani,
,,,,,,0,0,0,0,6,0,6,0,,,,,2,0.184300825349,3,0.384076735121,2018_Oct_12_1213,60.2449532443,test_experiment,002,pilot_shivani,
1,short,distractor,t1,A,8,0,0,0,0,7,0,7,0,0,0,0,0,,,,,2018_Oct_12_1213,60.2449532443,test_experiment,002,pilot_shivani,
2,short,distractor,t1,G,8,0,0,0,0,7,0,7,0,0,1,1,1,,,,,2018_Oct_12_1213,60.2449532443,test_experiment,002,pilot_shivani,
3,short,distractor,t1,T,8,0,0,0,0,7,0,7,0,0,2,2,2,,,,,2018_Oct_12_1213,60.2449532443,test_experiment,002,pilot_shivani,
4,short,distractor,t1,K,8,0,0,0,0,7,0,7,0,0,3,3,3,,,,,2018_Oct_12_1213,60.2449532443,test_experiment,002,pilot_shivani,
5,short,distractor,t1,B,8,0,0,0,0,7,0,7,0,0,4,4,4,,,,,2018_Oct_12_1213,60.2449532443,test_experiment,002,pilot_shivani,
6,short,distractor,t1,N,8,0,0,0,0,7,0,7,0,0,5,5,5,,,,,2018_Oct_12_1213,60.2449532443,test_experiment,002,pilot_shivani,
7,short,distractor,t1,K,8,0,0,0,0,7,0,7,0,0,6,6,6,,,,,2018_Oct_12_1213,60.2449532443,test_experiment,002,pilot_shivani,
8,short,distractor,t1,L,8,0,0,0,0,7,0,7,0,0,7,7,7,,,,,2018_Oct_12_1213,60.2449532443,test_experiment,002,pilot_shivani,
9,short,distractor,t1,Z,8,0,0,0,0,7,0,7,0,0,8,8,8,,,,,2018_Oct_12_1213,60.2449532443,test_experiment,002,pilot_shivani,
10,short,distractor,t1,Y,8,0,0,0,0,7,0,7,0,0,9,9,9,,,,,2018_Oct_12_1213,60.2449532443,test_experiment,002,pilot_shivani,
11,short,distractor,t1,U,8,0,0,0,0,7,0,7,0,0,10,10,10,,,,,2018_Oct_12_1213,60.2449532443,test_experiment,002,pilot_shivani,
12,short,target,t1,7,8,0,0,0,0,7,0,7,0,0,11,11,11,,,,,2018_Oct_12_1213,60.2449532443,test_experiment,002,pilot_shivani,
13,short,distractor,t1,I,8,0,0,0,0,7,0,7,0,0,12,12,12,,,,,2018_Oct_12_1213,60.2449532443,test_experiment,002,pilot_shivani,
14,short,distractor,t1,N,8,0,0,0,0,7,0,7,0,0,13,13,13,,,,,2018_Oct_12_1213,60.2449532443,test_experiment,002,pilot_shivani,
15,short,distractor,t1,S,8,0,0,0,0,7,0,7,0,0,14,14,14,,,,,2018_Oct_12_1213,60.2449532443,test_experiment,002,pilot_shivani,
16,short,mask,t1, ,8,0,0,0,0,7,0,7,0,0,15,15,15,,,,,2018_Oct_12_1213,60.2449532443,test_experiment,002,pilot_shivani,
17,short,distractor,t1,H,8,0,0,0,0,7,0,7,0,0,16,16,16,,,,,2018_Oct_12_1213,60.2449532443,test_experiment,002,pilot_shivani,
18,short,distractor,t1,R,8,0,0,0,0,7,0,7,0,0,17,17,17,,,,,2018_Oct_12_1213,60.2449532443,test_experiment,002,pilot_shivani,
,,,,,,0,0,0,0,7,0,7,0,,,,,3,1.56759904383,1,1.46801381197,2018_Oct_12_1213,60.2449532443,test_experiment,002,pilot_shivani,
1,short,distractor,t1,V,9,0,0,0,0,8,0,8,0,0,0,0,0,,,,,2018_Oct_12_1213,60.2449532443,test_experiment,002,pilot_shivani,
2,short,distractor,t1,Q,9,0,0,0,0,8,0,8,0,0,1,1,1,,,,,2018_Oct_12_1213,60.2449532443,test_experiment,002,pilot_shivani,
3,short,distractor,t1,B,9,0,0,0,0,8,0,8,0,0,2,2,2,,,,,2018_Oct_12_1213,60.2449532443,test_experiment,002,pilot_shivani,
4,short,distractor,t1,R,9,0,0,0,0,8,0,8,0,0,3,3,3,,,,,2018_Oct_12_1213,60.2449532443,test_experiment,002,pilot_shivani,
5,short,distractor,t1,H,9,0,0,0,0,8,0,8,0,0,4,4,4,,,,,2018_Oct_12_1213,60.2449532443,test_experiment,002,pilot_shivani,
6,short,distractor,t1,X,9,0,0,0,0,8,0,8,0,0,5,5,5,,,,,2018_Oct_12_1213,60.2449532443,test_experiment,002,pilot_shivani,
7,short,distractor,t1,G,9,0,0,0,0,8,0,8,0,0,6,6,6,,,,,2018_Oct_12_1213,60.2449532443,test_experiment,002,pilot_shivani,
8,short,distractor,t1,M,9,0,0,0,0,8,0,8,0,0,7,7,7,,,,,2018_Oct_12_1213,60.2449532443,test_experiment,002,pilot_shivani,
9,short,distractor,t1,L,9,0,0,0,0,8,0,8,0,0,8,8,8,,,,,2018_Oct_12_1213,60.2449532443,test_experiment,002,pilot_shivani,
10,short,distractor,t1,O,9,0,0,0,0,8,0,8,0,0,9,9,9,,,,,2018_Oct_12_1213,60.2449532443,test_experiment,002,pilot_shivani,
11,short,distractor,t1,S,9,0,0,0,0,8,0,8,0,0,10,10,10,,,,,2018_Oct_12_1213,60.2449532443,test_experiment,002,pilot_shivani,
12,short,distractor,t1,U,9,0,0,0,0,8,0,8,0,0,11,11,11,,,,,2018_Oct_12_1213,60.2449532443,test_experiment,002,pilot_shivani,
13,short,target,t1,3,9,0,0,0,0,8,0,8,0,0,12,12,12,,,,,2018_Oct_12_1213,60.2449532443,test_experiment,002,pilot_shivani,
14,short,distractor,t1,H,9,0,0,0,0,8,0,8,0,0,13,13,13,,,,,2018_Oct_12_1213,60.2449532443,test_experiment,002,pilot_shivani,
15,short,distractor,t1,A,9,0,0,0,0,8,0,8,0,0,14,14,14,,,,,2018_Oct_12_1213,60.2449532443,test_experiment,002,pilot_shivani,
16,short,distractor,t1,P,9,0,0,0,0,8,0,8,0,0,15,15,15,,,,,2018_Oct_12_1213,60.2449532443,test_experiment,002,pilot_shivani,
17,short,mask,t1, ,9,0,0,0,0,8,0,8,0,0,16,16,16,,,,,2018_Oct_12_1213,60.2449532443,test_experiment,002,pilot_shivani,
18,short,distractor,t1,G,9,0,0,0,0,8,0,8,0,0,17,17,17,,,,,2018_Oct_12_1213,60.2449532443,test_experiment,002,pilot_shivani,
,,,,,,0,0,0,0,8,0,8,0,,,,,3,1.55040527333,4,0.950991609716,2018_Oct_12_1213,60.2449532443,test_experiment,002,pilot_shivani,
1,long,target,t2,1,10,0,0,0,0,9,0,9,0,0,0,0,0,,,,,2018_Oct_12_1213,60.2449532443,test_experiment,002,pilot_shivani,
2,long,distractor,t2,K,10,0,0,0,0,9,0,9,0,0,1,1,1,,,,,2018_Oct_12_1213,60.2449532443,test_experiment,002,pilot_shivani,
3,long,distractor,t2,Q,10,0,0,0,0,9,0,9,0,0,2,2,2,,,,,2018_Oct_12_1213,60.2449532443,test_experiment,002,pilot_shivani,
4,long,distractor,t2,E,10,0,0,0,0,9,0,9,0,0,3,3,3,,,,,2018_Oct_12_1213,60.2449532443,test_experiment,002,pilot_shivani,
5,long,mask,t2, ,10,0,0,0,0,9,0,9,0,0,4,4,4,,,,,2018_Oct_12_1213,60.2449532443,test_experiment,002,pilot_shivani,
6,long,distractor,t2,L,10,0,0,0,0,9,0,9,0,0,5,5,5,,,,,2018_Oct_12_1213,60.2449532443,test_experiment,002,pilot_shivani,
7,long,distractor,t2,N,10,0,0,0,0,9,0,9,0,0,6,6,6,,,,,2018_Oct_12_1213,60.2449532443,test_experiment,002,pilot_shivani,
8,long,distractor,t2,J,10,0,0,0,0,9,0,9,0,0,7,7,7,,,,,2018_Oct_12_1213,60.2449532443,test_experiment,002,pilot_shivani,
9,long,target,t2,5,10,0,0,0,0,9,0,9,0,0,8,8,8,,,,,2018_Oct_12_1213,60.2449532443,test_experiment,002,pilot_shivani,
10,long,distractor,t2,Y,10,0,0,0,0,9,0,9,0,0,9,9,9,,,,,2018_Oct_12_1213,60.2449532443,test_experiment,002,pilot_shivani,
11,long,distractor,t2,B,10,0,0,0,0,9,0,9,0,0,10,10,10,,,,,2018_Oct_12_1213,60.2449532443,test_experiment,002,pilot_shivani,
12,long,distractor,t2,V,10,0,0,0,0,9,0,9,0,0,11,11,11,,,,,2018_Oct_12_1213,60.2449532443,test_experiment,002,pilot_shivani,
13,long,distractor,t2,N,10,0,0,0,0,9,0,9,0,0,12,12,12,,,,,2018_Oct_12_1213,60.2449532443,test_experiment,002,pilot_shivani,
14,long,distractor,t2,N,10,0,0,0,0,9,0,9,0,0,13,13,13,,,,,2018_Oct_12_1213,60.2449532443,test_experiment,002,pilot_shivani,
15,long,distractor,t2,H,10,0,0,0,0,9,0,9,0,0,14,14,14,,,,,2018_Oct_12_1213,60.2449532443,test_experiment,002,pilot_shivani,
16,long,distractor,t2,G,10,0,0,0,0,9,0,9,0,0,15,15,15,,,,,2018_Oct_12_1213,60.2449532443,test_experiment,002,pilot_shivani,
17,long,distractor,t2,V,10,0,0,0,0,9,0,9,0,0,16,16,16,,,,,2018_Oct_12_1213,60.2449532443,test_experiment,002,pilot_shivani,
,,,,,,0,0,0,0,9,0,9,0,,,,,1,0.284387540887,5,0.617878420395,2018_Oct_12_1213,60.2449532443,test_experiment,002,pilot_shivani,
1,short,distractor,t1,D,11,0,0,0,0,10,0,10,0,0,0,0,0,,,,,2018_Oct_12_1213,60.2449532443,test_experiment,002,pilot_shivani,
2,short,distractor,t1,T,11,0,0,0,0,10,0,10,0,0,1,1,1,,,,,2018_Oct_12_1213,60.2449532443,test_experiment,002,pilot_shivani,
3,short,distractor,t1,V,11,0,0,0,0,10,0,10,0,0,2,2,2,,,,,2018_Oct_12_1213,60.2449532443,test_experiment,002,pilot_shivani,
4,short,distractor,t1,A,11,0,0,0,0,10,0,10,0,0,3,3,3,,,,,2018_Oct_12_1213,60.2449532443,test_experiment,002,pilot_shivani,
5,short,distractor,t1,E,11,0,0,0,0,10,0,10,0,0,4,4,4,,,,,2018_Oct_12_1213,60.2449532443,test_experiment,002,pilot_shivani,
6,short,distractor,t1,F,11,0,0,0,0,10,0,10,0,0,5,5,5,,,,,2018_Oct_12_1213,60.2449532443,test_experiment,002,pilot_shivani,
7,short,distractor,t1,C,11,0,0,0,0,10,0,10,0,0,6,6,6,,,,,2018_Oct_12_1213,60.2449532443,test_experiment,002,pilot_shivani,
8,short,distractor,t1,R,11,0,0,0,0,10,0,10,0,0,7,7,7,,,,,2018_Oct_12_1213,60.2449532443,test_experiment,002,pilot_shivani,
9,short,distractor,t1,Y,11,0,0,0,0,10,0,10,0,0,8,8,8,,,,,2018_Oct_12_1213,60.2449532443,test_experiment,002,pilot_shivani,
10,short,distractor,t1,S,11,0,0,0,0,10,0,10,0,0,9,9,9,,,,,2018_Oct_12_1213,60.2449532443,test_experiment,002,pilot_shivani,
11,short,distractor,t1,G,11,0,0,0,0,10,0,10,0,0,10,10,10,,,,,2018_Oct_12_1213,60.2449532443,test_experiment,002,pilot_shivani,
12,short,distractor,t1,A,11,0,0,0,0,10,0,10,0,0,11,11,11,,,,,2018_Oct_12_1213,60.2449532443,test_experiment,002,pilot_shivani,
13,short,target,t1,5,11,0,0,0,0,10,0,10,0,0,12,12,12,,,,,2018_Oct_12_1213,60.2449532443,test_experiment,002,pilot_shivani,
14,short,distractor,t1,N,11,0,0,0,0,10,0,10,0,0,13,13,13,,,,,2018_Oct_12_1213,60.2449532443,test_experiment,002,pilot_shivani,
15,short,distractor,t1,J,11,0,0,0,0,10,0,10,0,0,14,14,14,,,,,2018_Oct_12_1213,60.2449532443,test_experiment,002,pilot_shivani,
16,short,distractor,t1,E,11,0,0,0,0,10,0,10,0,0,15,15,15,,,,,2018_Oct_12_1213,60.2449532443,test_experiment,002,pilot_shivani,
17,short,mask,t1, ,11,0,0,0,0,10,0,10,0,0,16,16,16,,,,,2018_Oct_12_1213,60.2449532443,test_experiment,002,pilot_shivani,
18,short,distractor,t1,E,11,0,0,0,0,10,0,10,0,0,17,17,17,,,,,2018_Oct_12_1213,60.2449532443,test_experiment,002,pilot_shivani,
,,,,,,0,0,0,0,10,0,10,0,,,,,5,0.616919021122,1,0.302075283253,2018_Oct_12_1213,60.2449532443,test_experiment,002,pilot_shivani,
1,short,target,t2,7,12,0,0,0,0,11,0,11,0,0,0,0,0,,,,,2018_Oct_12_1213,60.2449532443,test_experiment,002,pilot_shivani,
2,short,distractor,t2,H,12,0,0,0,0,11,0,11,0,0,1,1,1,,,,,2018_Oct_12_1213,60.2449532443,test_experiment,002,pilot_shivani,
3,short,distractor,t2,F,12,0,0,0,0,11,0,11,0,0,2,2,2,,,,,2018_Oct_12_1213,60.2449532443,test_experiment,002,pilot_shivani,
4,short,distractor,t2,X,12,0,0,0,0,11,0,11,0,0,3,3,3,,,,,2018_Oct_12_1213,60.2449532443,test_experiment,002,pilot_shivani,
5,short,target,t2,7,12,0,0,0,0,11,0,11,0,0,4,4,4,,,,,2018_Oct_12_1213,60.2449532443,test_experiment,002,pilot_shivani,
6,short,distractor,t2,O,12,0,0,0,0,11,0,11,0,0,5,5,5,,,,,2018_Oct_12_1213,60.2449532443,test_experiment,002,pilot_shivani,
7,short,distractor,t2,W,12,0,0,0,0,11,0,11,0,0,6,6,6,,,,,2018_Oct_12_1213,60.2449532443,test_experiment,002,pilot_shivani,
8,short,distractor,t2,K,12,0,0,0,0,11,0,11,0,0,7,7,7,,,,,2018_Oct_12_1213,60.2449532443,test_experiment,002,pilot_shivani,
9,short,distractor,t2,C,12,0,0,0,0,11,0,11,0,0,8,8,8,,,,,2018_Oct_12_1213,60.2449532443,test_experiment,002,pilot_shivani,
10,short,distractor,t2,P,12,0,0,0,0,11,0,11,0,0,9,9,9,,,,,2018_Oct_12_1213,60.2449532443,test_experiment,002,pilot_shivani,
11,short,distractor,t2,R,12,0,0,0,0,11,0,11,0,0,10,10,10,,,,,2018_Oct_12_1213,60.2449532443,test_experiment,002,pilot_shivani,
12,short,distractor,t2,R,12,0,0,0,0,11,0,11,0,0,11,11,11,,,,,2018_Oct_12_1213,60.2449532443,test_experiment,002,pilot_shivani,
13,short,distractor,t2,R,12,0,0,0,0,11,0,11,0,0,12,12,12,,,,,2018_Oct_12_1213,60.2449532443,test_experiment,002,pilot_shivani,
14,short,distractor,t2,S,12,0,0,0,0,11,0,11,0,0,13,13,13,,,,,2018_Oct_12_1213,60.2449532443,test_experiment,002,pilot_shivani,
15,short,distractor,t2,F,12,0,0,0,0,11,0,11,0,0,14,14,14,,,,,2018_Oct_12_1213,60.2449532443,test_experiment,002,pilot_shivani,
16,short,distractor,t2,X,12,0,0,0,0,11,0,11,0,0,15,15,15,,,,,2018_Oct_12_1213,60.2449532443,test_experiment,002,pilot_shivani,
17,short,distractor,t2,C,12,0,0,0,0,11,0,11,0,0,16,16,16,,,,,2018_Oct_12_1213,60.2449532443,test_experiment,002,pilot_shivani,
,,,,,,0,0,0,0,11,0,11,0,,,,,7,0.716698957141,1,0.401624458726,2018_Oct_12_1213,60.2449532443,test_experiment,002,pilot_shivani,
1,short,distractor,t2,A,13,0,0,0,0,12,0,12,0,0,0,0,0,,,,,2018_Oct_12_1213,60.2449532443,test_experiment,002,pilot_shivani,
2,short,distractor,t2,A,13,0,0,0,0,12,0,12,0,0,1,1,1,,,,,2018_Oct_12_1213,60.2449532443,test_experiment,002,pilot_shivani,
3,short,distractor,t2,O,13,0,0,0,0,12,0,12,0,0,2,2,2,,,,,2018_Oct_12_1213,60.2449532443,test_experiment,002,pilot_shivani,
4,short,distractor,t2,B,13,0,0,0,0,12,0,12,0,0,3,3,3,,,,,2018_Oct_12_1213,60.2449532443,test_experiment,002,pilot_shivani,
5,short,distractor,t2,B,13,0,0,0,0,12,0,12,0,0,4,4,4,,,,,2018_Oct_12_1213,60.2449532443,test_experiment,002,pilot_shivani,
6,short,distractor,t2,G,13,0,0,0,0,12,0,12,0,0,5,5,5,,,,,2018_Oct_12_1213,60.2449532443,test_experiment,002,pilot_shivani,
7,short,distractor,t2,E,13,0,0,0,0,12,0,12,0,0,6,6,6,,,,,2018_Oct_12_1213,60.2449532443,test_experiment,002,pilot_shivani,
8,short,target,t2,6,13,0,0,0,0,12,0,12,0,0,7,7,7,,,,,2018_Oct_12_1213,60.2449532443,test_experiment,002,pilot_shivani,
9,short,distractor,t2,Y,13,0,0,0,0,12,0,12,0,0,8,8,8,,,,,2018_Oct_12_1213,60.2449532443,test_experiment,002,pilot_shivani,
10,short,distractor,t2,M,13,0,0,0,0,12,0,12,0,0,9,9,9,,,,,2018_Oct_12_1213,60.2449532443,test_experiment,002,pilot_shivani,
11,short,distractor,t2,M,13,0,0,0,0,12,0,12,0,0,10,10,10,,,,,2018_Oct_12_1213,60.2449532443,test_experiment,002,pilot_shivani,
12,short,target,t2,6,13,0,0,0,0,12,0,12,0,0,11,11,11,,,,,2018_Oct_12_1213,60.2449532443,test_experiment,002,pilot_shivani,
13,short,distractor,t2,I,13,0,0,0,0,12,0,12,0,0,12,12,12,,,,,2018_Oct_12_1213,60.2449532443,test_experiment,002,pilot_shivani,
14,short,distractor,t2,W,13,0,0,0,0,12,0,12,0,0,13,13,13,,,,,2018_Oct_12_1213,60.2449532443,test_experiment,002,pilot_shivani,
15,short,distractor,t2,X,13,0,0,0,0,12,0,12,0,0,14,14,14,,,,,2018_Oct_12_1213,60.2449532443,test_experiment,002,pilot_shivani,
,,,,,,0,0,0,0,12,0,12,0,,,,,6,0.634174087318,1,0.550349986996,2018_Oct_12_1213,60.2449532443,test_experiment,002,pilot_shivani,
1,short,distractor,t1,R,14,0,0,0,0,13,0,13,0,0,0,0,0,,,,,2018_Oct_12_1213,60.2449532443,test_experiment,002,pilot_shivani,
2,short,distractor,t1,R,14,0,0,0,0,13,0,13,0,0,1,1,1,,,,,2018_Oct_12_1213,60.2449532443,test_experiment,002,pilot_shivani,
3,short,distractor,t1,N,14,0,0,0,0,13,0,13,0,0,2,2,2,,,,,2018_Oct_12_1213,60.2449532443,test_experiment,002,pilot_shivani,
4,short,distractor,t1,X,14,0,0,0,0,13,0,13,0,0,3,3,3,,,,,2018_Oct_12_1213,60.2449532443,test_experiment,002,pilot_shivani,
5,short,distractor,t1,O,14,0,0,0,0,13,0,13,0,0,4,4,4,,,,,2018_Oct_12_1213,60.2449532443,test_experiment,002,pilot_shivani,
6,short,distractor,t1,F,14,0,0,0,0,13,0,13,0,0,5,5,5,,,,,2018_Oct_12_1213,60.2449532443,test_experiment,002,pilot_shivani,
7,short,distractor,t1,Q,14,0,0,0,0,13,0,13,0,0,6,6,6,,,,,2018_Oct_12_1213,60.2449532443,test_experiment,002,pilot_shivani,
8,short,target,t1,3,14,0,0,0,0,13,0,13,0,0,7,7,7,,,,,2018_Oct_12_1213,60.2449532443,test_experiment,002,pilot_shivani,
9,short,distractor,t1,R,14,0,0,0,0,13,0,13,0,0,8,8,8,,,,,2018_Oct_12_1213,60.2449532443,test_experiment,002,pilot_shivani,
10,short,distractor,t1,X,14,0,0,0,0,13,0,13,0,0,9,9,9,,,,,2018_Oct_12_1213,60.2449532443,test_experiment,002,pilot_shivani,
11,short,distractor,t1,I,14,0,0,0,0,13,0,13,0,0,10,10,10,,,,,2018_Oct_12_1213,60.2449532443,test_experiment,002,pilot_shivani,
12,short,mask,t1, ,14,0,0,0,0,13,0,13,0,0,11,11,11,,,,,2018_Oct_12_1213,60.2449532443,test_experiment,002,pilot_shivani,
13,short,distractor,t1,I,14,0,0,0,0,13,0,13,0,0,12,12,12,,,,,2018_Oct_12_1213,60.2449532443,test_experiment,002,pilot_shivani,
14,short,distractor,t1,V,14,0,0,0,0,13,0,13,0,0,13,13,13,,,,,2018_Oct_12_1213,60.2449532443,test_experiment,002,pilot_shivani,
15,short,distractor,t1,J,14,0,0,0,0,13,0,13,0,0,14,14,14,,,,,2018_Oct_12_1213,60.2449532443,test_experiment,002,pilot_shivani,
,,,,,,0,0,0,0,13,0,13,0,,,,,3,0.416309909197,1,0.417706491658,2018_Oct_12_1213,60.2449532443,test_experiment,002,pilot_shivani,
1,short,mask,t2, ,15,0,0,0,0,14,0,14,0,0,0,0,0,,,,,2018_Oct_12_1213,60.2449532443,test_experiment,002,pilot_shivani,
2,short,distractor,t2,M,15,0,0,0,0,14,0,14,0,0,1,1,1,,,,,2018_Oct_12_1213,60.2449532443,test_experiment,002,pilot_shivani,
3,short,distractor,t2,P,15,0,0,0,0,14,0,14,0,0,2,2,2,,,,,2018_Oct_12_1213,60.2449532443,test_experiment,002,pilot_shivani,
4,short,distractor,t2,B,15,0,0,0,0,14,0,14,0,0,3,3,3,,,,,2018_Oct_12_1213,60.2449532443,test_experiment,002,pilot_shivani,
5,short,distractor,t2,W,15,0,0,0,0,14,0,14,0,0,4,4,4,,,,,2018_Oct_12_1213,60.2449532443,test_experiment,002,pilot_shivani,
6,short,distractor,t2,C,15,0,0,0,0,14,0,14,0,0,5,5,5,,,,,2018_Oct_12_1213,60.2449532443,test_experiment,002,pilot_shivani,
7,short,distractor,t2,J,15,0,0,0,0,14,0,14,0,0,6,6,6,,,,,2018_Oct_12_1213,60.2449532443,test_experiment,002,pilot_shivani,
8,short,distractor,t2,L,15,0,0,0,0,14,0,14,0,0,7,7,7,,,,,2018_Oct_12_1213,60.2449532443,test_experiment,002,pilot_shivani,
9,short,target,t2,8,15,0,0,0,0,14,0,14,0,0,8,8,8,,,,,2018_Oct_12_1213,60.2449532443,test_experiment,002,pilot_shivani,
10,short,distractor,t2,V,15,0,0,0,0,14,0,14,0,0,9,9,9,,,,,2018_Oct_12_1213,60.2449532443,test_experiment,002,pilot_shivani,
11,short,distractor,t2,Q,15,0,0,0,0,14,0,14,0,0,10,10,10,,,,,2018_Oct_12_1213,60.2449532443,test_experiment,002,pilot_shivani,
12,short,distractor,t2,F,15,0,0,0,0,14,0,14,0,0,11,11,11,,,,,2018_Oct_12_1213,60.2449532443,test_experiment,002,pilot_shivani,
13,short,target,t2,6,15,0,0,0,0,14,0,14,0,0,12,12,12,,,,,2018_Oct_12_1213,60.2449532443,test_experiment,002,pilot_shivani,
14,short,distractor,t2,C,15,0,0,0,0,14,0,14,0,0,13,13,13,,,,,2018_Oct_12_1213,60.2449532443,test_experiment,002,pilot_shivani,
15,short,distractor,t2,O,15,0,0,0,0,14,0,14,0,0,14,14,14,,,,,2018_Oct_12_1213,60.2449532443,test_experiment,002,pilot_shivani,
16,short,distractor,t2,V,15,0,0,0,0,14,0,14,0,0,15,15,15,,,,,2018_Oct_12_1213,60.2449532443,test_experiment,002,pilot_shivani,
17,short,distractor,t2,G,15,0,0,0,0,14,0,14,0,0,16,16,16,,,,,2018_Oct_12_1213,60.2449532443,test_experiment,002,pilot_shivani,
18,short,distractor,t2,N,15,0,0,0,0,14,0,14,0,0,17,17,17,,,,,2018_Oct_12_1213,60.2449532443,test_experiment,002,pilot_shivani,
,,,,,,0,0,0,0,14,0,14,0,,,,,8,0.334303649724,6,0.385497355368,2018_Oct_12_1213,60.2449532443,test_experiment,002,pilot_shivani,
1,short,distractor,t1,F,16,0,0,0,0,15,0,15,0,0,0,0,0,,,,,2018_Oct_12_1213,60.2449532443,test_experiment,002,pilot_shivani,
2,short,distractor,t1,M,16,0,0,0,0,15,0,15,0,0,1,1,1,,,,,2018_Oct_12_1213,60.2449532443,test_experiment,002,pilot_shivani,
3,short,distractor,t1,Y,16,0,0,0,0,15,0,15,0,0,2,2,2,,,,,2018_Oct_12_1213,60.2449532443,test_experiment,002,pilot_shivani,
4,short,distractor,t1,M,16,0,0,0,0,15,0,15,0,0,3,3,3,,,,,2018_Oct_12_1213,60.2449532443,test_experiment,002,pilot_shivani,
5,short,distractor,t1,K,16,0,0,0,0,15,0,15,0,0,4,4,4,,,,,2018_Oct_12_1213,60.2449532443,test_experiment,002,pilot_shivani,
6,short,distractor,t1,A,16,0,0,0,0,15,0,15,0,0,5,5,5,,,,,2018_Oct_12_1213,60.2449532443,test_experiment,002,pilot_shivani,
7,short,distractor,t1,O,16,0,0,0,0,15,0,15,0,0,6,6,6,,,,,2018_Oct_12_1213,60.2449532443,test_experiment,002,pilot_shivani,
8,short,distractor,t1,X,16,0,0,0,0,15,0,15,0,0,7,7,7,,,,,2018_Oct_12_1213,60.2449532443,test_experiment,002,pilot_shivani,
9,short,distractor,t1,N,16,0,0,0,0,15,0,15,0,0,8,8,8,,,,,2018_Oct_12_1213,60.2449532443,test_experiment,002,pilot_shivani,
10,short,distractor,t1,C,16,0,0,0,0,15,0,15,0,0,9,9,9,,,,,2018_Oct_12_1213,60.2449532443,test_experiment,002,pilot_shivani,
11,short,target,t1,6,16,0,0,0,0,15,0,15,0,0,10,10,10,,,,,2018_Oct_12_1213,60.2449532443,test_experiment,002,pilot_shivani,
12,short,distractor,t1,B,16,0,0,0,0,15,0,15,0,0,11,11,11,,,,,2018_Oct_12_1213,60.2449532443,test_experiment,002,pilot_shivani,
13,short,distractor,t1,B,16,0,0,0,0,15,0,15,0,0,12,12,12,,,,,2018_Oct_12_1213,60.2449532443,test_experiment,002,pilot_shivani,
14,short,distractor,t1,C,16,0,0,0,0,15,0,15,0,0,13,13,13,,,,,2018_Oct_12_1213,60.2449532443,test_experiment,002,pilot_shivani,
15,short,mask,t1, ,16,0,0,0,0,15,0,15,0,0,14,14,14,,,,,2018_Oct_12_1213,60.2449532443,test_experiment,002,pilot_shivani,
16,short,distractor,t1,K,16,0,0,0,0,15,0,15,0,0,15,15,15,,,,,2018_Oct_12_1213,60.2449532443,test_experiment,002,pilot_shivani,
17,short,distractor,t1,W,16,0,0,0,0,15,0,15,0,0,16,16,16,,,,,2018_Oct_12_1213,60.2449532443,test_experiment,002,pilot_shivani,
18,short,distractor,t1,M,16,0,0,0,0,15,0,15,0,0,17,17,17,,,,,2018_Oct_12_1213,60.2449532443,test_experiment,002,pilot_shivani,
,,,,,,0,0,0,0,15,0,15,0,,,,,6,0.451311609708,1,0.534773644293,2018_Oct_12_1213,60.2449532443,test_experiment,002,pilot_shivani,
1,short,distractor,t2,J,17,0,0,0,0,16,0,16,0,0,0,0,0,,,,,2018_Oct_12_1213,60.2449532443,test_experiment,002,pilot_shivani,
2,short,distractor,t2,O,17,0,0,0,0,16,0,16,0,0,1,1,1,,,,,2018_Oct_12_1213,60.2449532443,test_experiment,002,pilot_shivani,
3,short,distractor,t2,A,17,0,0,0,0,16,0,16,0,0,2,2,2,,,,,2018_Oct_12_1213,60.2449532443,test_experiment,002,pilot_shivani,
4,short,target,t2,7,17,0,0,0,0,16,0,16,0,0,3,3,3,,,,,2018_Oct_12_1213,60.2449532443,test_experiment,002,pilot_shivani,
5,short,distractor,t2,S,17,0,0,0,0,16,0,16,0,0,4,4,4,,,,,2018_Oct_12_1213,60.2449532443,test_experiment,002,pilot_shivani,
6,short,distractor,t2,B,17,0,0,0,0,16,0,16,0,0,5,5,5,,,,,2018_Oct_12_1213,60.2449532443,test_experiment,002,pilot_shivani,
7,short,distractor,t2,S,17,0,0,0,0,16,0,16,0,0,6,6,6,,,,,2018_Oct_12_1213,60.2449532443,test_experiment,002,pilot_shivani,
8,short,target,t2,8,17,0,0,0,0,16,0,16,0,0,7,7,7,,,,,2018_Oct_12_1213,60.2449532443,test_experiment,002,pilot_shivani,
9,short,distractor,t2,F,17,0,0,0,0,16,0,16,0,0,8,8,8,,,,,2018_Oct_12_1213,60.2449532443,test_experiment,002,pilot_shivani,
10,short,distractor,t2,G,17,0,0,0,0,16,0,16,0,0,9,9,9,,,,,2018_Oct_12_1213,60.2449532443,test_experiment,002,pilot_shivani,
11,short,distractor,t2,E,17,0,0,0,0,16,0,16,0,0,10,10,10,,,,,2018_Oct_12_1213,60.2449532443,test_experiment,002,pilot_shivani,
12,short,distractor,t2,I,17,0,0,0,0,16,0,16,0,0,11,11,11,,,,,2018_Oct_12_1213,60.2449532443,test_experiment,002,pilot_shivani,
13,short,distractor,t2,G,17,0,0,0,0,16,0,16,0,0,12,12,12,,,,,2018_Oct_12_1213,60.2449532443,test_experiment,002,pilot_shivani,
14,short,distractor,t2,X,17,0,0,0,0,16,0,16,0,0,13,13,13,,,,,2018_Oct_12_1213,60.2449532443,test_experiment,002,pilot_shivani,
15,short,distractor,t2,R,17,0,0,0,0,16,0,16,0,0,14,14,14,,,,,2018_Oct_12_1213,60.2449532443,test_experiment,002,pilot_shivani,
,,,,,,0,0,0,0,16,0,16,0,,,,,8,0.151234749705,4,0.533838883392,2018_Oct_12_1213,60.2449532443,test_experiment,002,pilot_shivani,
1,short,distractor,t1,W,18,0,0,0,0,17,0,17,0,0,0,0,0,,,,,2018_Oct_12_1213,60.2449532443,test_experiment,002,pilot_shivani,
2,short,distractor,t1,E,18,0,0,0,0,17,0,17,0,0,1,1,1,,,,,2018_Oct_12_1213,60.2449532443,test_experiment,002,pilot_shivani,
3,short,target,t1,3,18,0,0,0,0,17,0,17,0,0,2,2,2,,,,,2018_Oct_12_1213,60.2449532443,test_experiment,002,pilot_shivani,
4,short,distractor,t1,W,18,0,0,0,0,17,0,17,0,0,3,3,3,,,,,2018_Oct_12_1213,60.2449532443,test_experiment,002,pilot_shivani,
5,short,distractor,t1,N,18,0,0,0,0,17,0,17,0,0,4,4,4,,,,,2018_Oct_12_1213,60.2449532443,test_experiment,002,pilot_shivani,
6,short,distractor,t1,A,18,0,0,0,0,17,0,17,0,0,5,5,5,,,,,2018_Oct_12_1213,60.2449532443,test_experiment,002,pilot_shivani,
7,short,mask,t1, ,18,0,0,0,0,17,0,17,0,0,6,6,6,,,,,2018_Oct_12_1213,60.2449532443,test_experiment,002,pilot_shivani,
8,short,distractor,t1,O,18,0,0,0,0,17,0,17,0,0,7,7,7,,,,,2018_Oct_12_1213,60.2449532443,test_experiment,002,pilot_shivani,
9,short,distractor,t1,X,18,0,0,0,0,17,0,17,0,0,8,8,8,,,,,2018_Oct_12_1213,60.2449532443,test_experiment,002,pilot_shivani,
10,short,distractor,t1,F,18,0,0,0,0,17,0,17,0,0,9,9,9,,,,,2018_Oct_12_1213,60.2449532443,test_experiment,002,pilot_shivani,
11,short,distractor,t1,N,18,0,0,0,0,17,0,17,0,0,10,10,10,,,,,2018_Oct_12_1213,60.2449532443,test_experiment,002,pilot_shivani,
12,short,distractor,t1,U,18,0,0,0,0,17,0,17,0,0,11,11,11,,,,,2018_Oct_12_1213,60.2449532443,test_experiment,002,pilot_shivani,
13,short,distractor,t1,Z,18,0,0,0,0,17,0,17,0,0,12,12,12,,,,,2018_Oct_12_1213,60.2449532443,test_experiment,002,pilot_shivani,
14,short,distractor,t1,J,18,0,0,0,0,17,0,17,0,0,13,13,13,,,,,2018_Oct_12_1213,60.2449532443,test_experiment,002,pilot_shivani,
15,short,distractor,t1,X,18,0,0,0,0,17,0,17,0,0,14,14,14,,,,,2018_Oct_12_1213,60.2449532443,test_experiment,002,pilot_shivani,
16,short,distractor,t1,M,18,0,0,0,0,17,0,17,0,0,15,15,15,,,,,2018_Oct_12_1213,60.2449532443,test_experiment,002,pilot_shivani,
17,short,distractor,t1,Y,18,0,0,0,0,17,0,17,0,0,16,16,16,,,,,2018_Oct_12_1213,60.2449532443,test_experiment,002,pilot_shivani,
,,,,,,0,0,0,0,17,0,17,0,,,,,3,0.134845636785,1,0.449613355799,2018_Oct_12_1213,60.2449532443,test_experiment,002,pilot_shivani,
1,short,distractor,t1,W,19,0,0,0,0,18,0,18,0,0,0,0,0,,,,,2018_Oct_12_1213,60.2449532443,test_experiment,002,pilot_shivani,
2,short,distractor,t1,A,19,0,0,0,0,18,0,18,0,0,1,1,1,,,,,2018_Oct_12_1213,60.2449532443,test_experiment,002,pilot_shivani,
3,short,distractor,t1,C,19,0,0,0,0,18,0,18,0,0,2,2,2,,,,,2018_Oct_12_1213,60.2449532443,test_experiment,002,pilot_shivani,
4,short,target,t1,1,19,0,0,0,0,18,0,18,0,0,3,3,3,,,,,2018_Oct_12_1213,60.2449532443,test_experiment,002,pilot_shivani,
5,short,distractor,t1,U,19,0,0,0,0,18,0,18,0,0,4,4,4,,,,,2018_Oct_12_1213,60.2449532443,test_experiment,002,pilot_shivani,
6,short,distractor,t1,S,19,0,0,0,0,18,0,18,0,0,5,5,5,,,,,2018_Oct_12_1213,60.2449532443,test_experiment,002,pilot_shivani,
7,short,distractor,t1,A,19,0,0,0,0,18,0,18,0,0,6,6,6,,,,,2018_Oct_12_1213,60.2449532443,test_experiment,002,pilot_shivani,
8,short,mask,t1, ,19,0,0,0,0,18,0,18,0,0,7,7,7,,,,,2018_Oct_12_1213,60.2449532443,test_experiment,002,pilot_shivani,
9,short,distractor,t1,G,19,0,0,0,0,18,0,18,0,0,8,8,8,,,,,2018_Oct_12_1213,60.2449532443,test_experiment,002,pilot_shivani,
10,short,distractor,t1,R,19,0,0,0,0,18,0,18,0,0,9,9,9,,,,,2018_Oct_12_1213,60.2449532443,test_experiment,002,pilot_shivani,
11,short,distractor,t1,O,19,0,0,0,0,18,0,18,0,0,10,10,10,,,,,2018_Oct_12_1213,60.2449532443,test_experiment,002,pilot_shivani,
12,short,distractor,t1,S,19,0,0,0,0,18,0,18,0,0,11,11,11,,,,,2018_Oct_12_1213,60.2449532443,test_experiment,002,pilot_shivani,
13,short,distractor,t1,N,19,0,0,0,0,18,0,18,0,0,12,12,12,,,,,2018_Oct_12_1213,60.2449532443,test_experiment,002,pilot_shivani,
14,short,distractor,t1,V,19,0,0,0,0,18,0,18,0,0,13,13,13,,,,,2018_Oct_12_1213,60.2449532443,test_experiment,002,pilot_shivani,
15,short,distractor,t1,N,19,0,0,0,0,18,0,18,0,0,14,14,14,,,,,2018_Oct_12_1213,60.2449532443,test_experiment,002,pilot_shivani,
16,short,distractor,t1,K,19,0,0,0,0,18,0,18,0,0,15,15,15,,,,,2018_Oct_12_1213,60.2449532443,test_experiment,002,pilot_shivani,
17,short,distractor,t1,J,19,0,0,0,0,18,0,18,0,0,16,16,16,,,,,2018_Oct_12_1213,60.2449532443,test_experiment,002,pilot_shivani,
18,short,distractor,t1,G,19,0,0,0,0,18,0,18,0,0,17,17,17,,,,,2018_Oct_12_1213,60.2449532443,test_experiment,002,pilot_shivani,
,,,,,,0,0,0,0,18,0,18,0,,,,,2,0.684114233823,1,0.234142417787,2018_Oct_12_1213,60.2449532443,test_experiment,002,pilot_shivani,
1,short,distractor,t1,J,20,0,0,0,0,19,0,19,0,0,0,0,0,,,,,2018_Oct_12_1213,60.2449532443,test_experiment,002,pilot_shivani,
2,short,distractor,t1,S,20,0,0,0,0,19,0,19,0,0,1,1,1,,,,,2018_Oct_12_1213,60.2449532443,test_experiment,002,pilot_shivani,
3,short,distractor,t1,R,20,0,0,0,0,19,0,19,0,0,2,2,2,,,,,2018_Oct_12_1213,60.2449532443,test_experiment,002,pilot_shivani,
4,short,distractor,t1,C,20,0,0,0,0,19,0,19,0,0,3,3,3,,,,,2018_Oct_12_1213,60.2449532443,test_experiment,002,pilot_shivani,
5,short,distractor,t1,E,20,0,0,0,0,19,0,19,0,0,4,4,4,,,,,2018_Oct_12_1213,60.2449532443,test_experiment,002,pilot_shivani,
6,short,distractor,t1,Y,20,0,0,0,0,19,0,19,0,0,5,5,5,,,,,2018_Oct_12_1213,60.2449532443,test_experiment,002,pilot_shivani,
7,short,distractor,t1,Z,20,0,0,0,0,19,0,19,0,0,6,6,6,,,,,2018_Oct_12_1213,60.2449532443,test_experiment,002,pilot_shivani,
8,short,distractor,t1,J,20,0,0,0,0,19,0,19,0,0,7,7,7,,,,,2018_Oct_12_1213,60.2449532443,test_experiment,002,pilot_shivani,
9,short,distractor,t1,T,20,0,0,0,0,19,0,19,0,0,8,8,8,,,,,2018_Oct_12_1213,60.2449532443,test_experiment,002,pilot_shivani,
10,short,distractor,t1,K,20,0,0,0,0,19,0,19,0,0,9,9,9,,,,,2018_Oct_12_1213,60.2449532443,test_experiment,002,pilot_shivani,
11,short,distractor,t1,K,20,0,0,0,0,19,0,19,0,0,10,10,10,,,,,2018_Oct_12_1213,60.2449532443,test_experiment,002,pilot_shivani,
12,short,target,t1,7,20,0,0,0,0,19,0,19,0,0,11,11,11,,,,,2018_Oct_12_1213,60.2449532443,test_experiment,002,pilot_shivani,
13,short,distractor,t1,U,20,0,0,0,0,19,0,19,0,0,12,12,12,,,,,2018_Oct_12_1213,60.2449532443,test_experiment,002,pilot_shivani,
14,short,distractor,t1,V,20,0,0,0,0,19,0,19,0,0,13,13,13,,,,,2018_Oct_12_1213,60.2449532443,test_experiment,002,pilot_shivani,
15,short,distractor,t1,E,20,0,0,0,0,19,0,19,0,0,14,14,14,,,,,2018_Oct_12_1213,60.2449532443,test_experiment,002,pilot_shivani,
16,short,mask,t1, ,20,0,0,0,0,19,0,19,0,0,15,15,15,,,,,2018_Oct_12_1213,60.2449532443,test_experiment,002,pilot_shivani,
17,short,distractor,t1,A,20,0,0,0,0,19,0,19,0,0,16,16,16,,,,,2018_Oct_12_1213,60.2449532443,test_experiment,002,pilot_shivani,
18,short,distractor,t1,O,20,0,0,0,0,19,0,19,0,0,17,17,17,,,,,2018_Oct_12_1213,60.2449532443,test_experiment,002,pilot_shivani,
,,,,,,0,0,0,0,19,0,19,0,,,,,7,0.318380865618,1,0.335470072692,2018_Oct_12_1213,60.2449532443,test_experiment,002,pilot_shivani,
1,short,distractor,t1,K,21,0,0,0,0,20,0,20,0,0,0,0,0,,,,,2018_Oct_12_1213,60.2449532443,test_experiment,002,pilot_shivani,
2,short,distractor,t1,E,21,0,0,0,0,20,0,20,0,0,1,1,1,,,,,2018_Oct_12_1213,60.2449532443,test_experiment,002,pilot_shivani,
3,short,distractor,t1,P,21,0,0,0,0,20,0,20,0,0,2,2,2,,,,,2018_Oct_12_1213,60.2449532443,test_experiment,002,pilot_shivani,
4,short,distractor,t1,L,21,0,0,0,0,20,0,20,0,0,3,3,3,,,,,2018_Oct_12_1213,60.2449532443,test_experiment,002,pilot_shivani,
5,short,distractor,t1,U,21,0,0,0,0,20,0,20,0,0,4,4,4,,,,,2018_Oct_12_1213,60.2449532443,test_experiment,002,pilot_shivani,
6,short,distractor,t1,R,21,0,0,0,0,20,0,20,0,0,5,5,5,,,,,2018_Oct_12_1213,60.2449532443,test_experiment,002,pilot_shivani,
7,short,distractor,t1,A,21,0,0,0,0,20,0,20,0,0,6,6,6,,,,,2018_Oct_12_1213,60.2449532443,test_experiment,002,pilot_shivani,
8,short,target,t1,4,21,0,0,0,0,20,0,20,0,0,7,7,7,,,,,2018_Oct_12_1213,60.2449532443,test_experiment,002,pilot_shivani,
9,short,distractor,t1,F,21,0,0,0,0,20,0,20,0,0,8,8,8,,,,,2018_Oct_12_1213,60.2449532443,test_experiment,002,pilot_shivani,
10,short,distractor,t1,K,21,0,0,0,0,20,0,20,0,0,9,9,9,,,,,2018_Oct_12_1213,60.2449532443,test_experiment,002,pilot_shivani,
11,short,distractor,t1,G,21,0,0,0,0,20,0,20,0,0,10,10,10,,,,,2018_Oct_12_1213,60.2449532443,test_experiment,002,pilot_shivani,
12,short,mask,t1, ,21,0,0,0,0,20,0,20,0,0,11,11,11,,,,,2018_Oct_12_1213,60.2449532443,test_experiment,002,pilot_shivani,
13,short,distractor,t1,W,21,0,0,0,0,20,0,20,0,0,12,12,12,,,,,2018_Oct_12_1213,60.2449532443,test_experiment,002,pilot_shivani,
14,short,distractor,t1,H,21,0,0,0,0,20,0,20,0,0,13,13,13,,,,,2018_Oct_12_1213,60.2449532443,test_experiment,002,pilot_shivani,
15,short,distractor,t1,C,21,0,0,0,0,20,0,20,0,0,14,14,14,,,,,2018_Oct_12_1213,60.2449532443,test_experiment,002,pilot_shivani,
,,,,,,0,0,0,0,20,0,20,0,,,,,4,0.617752223159,1,0.301309686736,2018_Oct_12_1213,60.2449532443,test_experiment,002,pilot_shivani,
1,long,distractor,t2,G,22,0,0,0,0,21,0,21,0,0,0,0,0,,,,,2018_Oct_12_1213,60.2449532443,test_experiment,002,pilot_shivani,
2,long,distractor,t2,P,22,0,0,0,0,21,0,21,0,0,1,1,1,,,,,2018_Oct_12_1213,60.2449532443,test_experiment,002,pilot_shivani,
3,long,distractor,t2,E,22,0,0,0,0,21,0,21,0,0,2,2,2,,,,,2018_Oct_12_1213,60.2449532443,test_experiment,002,pilot_shivani,
4,long,distractor,t2,C,22,0,0,0,0,21,0,21,0,0,3,3,3,,,,,2018_Oct_12_1213,60.2449532443,test_experiment,002,pilot_shivani,
5,long,distractor,t2,N,22,0,0,0,0,21,0,21,0,0,4,4,4,,,,,2018_Oct_12_1213,60.2449532443,test_experiment,002,pilot_shivani,
6,long,target,t2,6,22,0,0,0,0,21,0,21,0,0,5,5,5,,,,,2018_Oct_12_1213,60.2449532443,test_experiment,002,pilot_shivani,
7,long,distractor,t2,N,22,0,0,0,0,21,0,21,0,0,6,6,6,,,,,2018_Oct_12_1213,60.2449532443,test_experiment,002,pilot_shivani,
8,long,distractor,t2,U,22,0,0,0,0,21,0,21,0,0,7,7,7,,,,,2018_Oct_12_1213,60.2449532443,test_experiment,002,pilot_shivani,
9,long,distractor,t2,A,22,0,0,0,0,21,0,21,0,0,8,8,8,,,,,2018_Oct_12_1213,60.2449532443,test_experiment,002,pilot_shivani,
10,long,distractor,t2,I,22,0,0,0,0,21,0,21,0,0,9,9,9,,,,,2018_Oct_12_1213,60.2449532443,test_experiment,002,pilot_shivani,
11,long,distractor,t2,R,22,0,0,0,0,21,0,21,0,0,10,10,10,,,,,2018_Oct_12_1213,60.2449532443,test_experiment,002,pilot_shivani,
12,long,distractor,t2,Q,22,0,0,0,0,21,0,21,0,0,11,11,11,,,,,2018_Oct_12_1213,60.2449532443,test_experiment,002,pilot_shivani,
13,long,distractor,t2,Q,22,0,0,0,0,21,0,21,0,0,12,12,12,,,,,2018_Oct_12_1213,60.2449532443,test_experiment,002,pilot_shivani,
14,long,target,t2,4,22,0,0,0,0,21,0,21,0,0,13,13,13,,,,,2018_Oct_12_1213,60.2449532443,test_experiment,002,pilot_shivani,
15,long,distractor,t2,U,22,0,0,0,0,21,0,21,0,0,14,14,14,,,,,2018_Oct_12_1213,60.2449532443,test_experiment,002,pilot_shivani,
16,long,distractor,t2,V,22,0,0,0,0,21,0,21,0,0,15,15,15,,,,,2018_Oct_12_1213,60.2449532443,test_experiment,002,pilot_shivani,
17,long,distractor,t2,L,22,0,0,0,0,21,0,21,0,0,16,16,16,,,,,2018_Oct_12_1213,60.2449532443,test_experiment,002,pilot_shivani,
18,long,distractor,t2,I,22,0,0,0,0,21,0,21,0,0,17,17,17,,,,,2018_Oct_12_1213,60.2449532443,test_experiment,002,pilot_shivani,
,,,,,,0,0,0,0,21,0,21,0,,,,,6,1.00121720228,4,0.418535487261,2018_Oct_12_1213,60.2449532443,test_experiment,002,pilot_shivani,
1,short,distractor,t1,A,23,0,0,0,0,22,0,22,0,0,0,0,0,,,,,2018_Oct_12_1213,60.2449532443,test_experiment,002,pilot_shivani,
2,short,distractor,t1,D,23,0,0,0,0,22,0,22,0,0,1,1,1,,,,,2018_Oct_12_1213,60.2449532443,test_experiment,002,pilot_shivani,
3,short,distractor,t1,Q,23,0,0,0,0,22,0,22,0,0,2,2,2,,,,,2018_Oct_12_1213,60.2449532443,test_experiment,002,pilot_shivani,
4,short,distractor,t1,X,23,0,0,0,0,22,0,22,0,0,3,3,3,,,,,2018_Oct_12_1213,60.2449532443,test_experiment,002,pilot_shivani,
5,short,distractor,t1,C,23,0,0,0,0,22,0,22,0,0,4,4,4,,,,,2018_Oct_12_1213,60.2449532443,test_experiment,002,pilot_shivani,
6,short,distractor,t1,R,23,0,0,0,0,22,0,22,0,0,5,5,5,,,,,2018_Oct_12_1213,60.2449532443,test_experiment,002,pilot_shivani,
7,short,distractor,t1,E,23,0,0,0,0,22,0,22,0,0,6,6,6,,,,,2018_Oct_12_1213,60.2449532443,test_experiment,002,pilot_shivani,
8,short,distractor,t1,Q,23,0,0,0,0,22,0,22,0,0,7,7,7,,,,,2018_Oct_12_1213,60.2449532443,test_experiment,002,pilot_shivani,
9,short,distractor,t1,Q,23,0,0,0,0,22,0,22,0,0,8,8,8,,,,,2018_Oct_12_1213,60.2449532443,test_experiment,002,pilot_shivani,
10,short,distractor,t1,K,23,0,0,0,0,22,0,22,0,0,9,9,9,,,,,2018_Oct_12_1213,60.2449532443,test_experiment,002,pilot_shivani,
11,short,distractor,t1,Q,23,0,0,0,0,22,0,22,0,0,10,10,10,,,,,2018_Oct_12_1213,60.2449532443,test_experiment,002,pilot_shivani,
12,short,target,t1,1,23,0,0,0,0,22,0,22,0,0,11,11,11,,,,,2018_Oct_12_1213,60.2449532443,test_experiment,002,pilot_shivani,
13,short,distractor,t1,B,23,0,0,0,0,22,0,22,0,0,12,12,12,,,,,2018_Oct_12_1213,60.2449532443,test_experiment,002,pilot_shivani,
14,short,distractor,t1,X,23,0,0,0,0,22,0,22,0,0,13,13,13,,,,,2018_Oct_12_1213,60.2449532443,test_experiment,002,pilot_shivani,
15,short,distractor,t1,S,23,0,0,0,0,22,0,22,0,0,14,14,14,,,,,2018_Oct_12_1213,60.2449532443,test_experiment,002,pilot_shivani,
16,short,mask,t1, ,23,0,0,0,0,22,0,22,0,0,15,15,15,,,,,2018_Oct_12_1213,60.2449532443,test_experiment,002,pilot_shivani,
17,short,distractor,t1,G,23,0,0,0,0,22,0,22,0,0,16,16,16,,,,,2018_Oct_12_1213,60.2449532443,test_experiment,002,pilot_shivani,
,,,,,,0,0,0,0,22,0,22,0,,,,,1,0.784052817733,5,0.768230991438,2018_Oct_12_1213,60.2449532443,test_experiment,002,pilot_shivani,
1,short,distractor,t1,N,24,0,0,0,0,23,0,23,0,0,0,0,0,,,,,2018_Oct_12_1213,60.2449532443,test_experiment,002,pilot_shivani,
2,short,distractor,t1,J,24,0,0,0,0,23,0,23,0,0,1,1,1,,,,,2018_Oct_12_1213,60.2449532443,test_experiment,002,pilot_shivani,
3,short,distractor,t1,O,24,0,0,0,0,23,0,23,0,0,2,2,2,,,,,2018_Oct_12_1213,60.2449532443,test_experiment,002,pilot_shivani,
4,short,target,t1,8,24,0,0,0,0,23,0,23,0,0,3,3,3,,,,,2018_Oct_12_1213,60.2449532443,test_experiment,002,pilot_shivani,
5,short,distractor,t1,E,24,0,0,0,0,23,0,23,0,0,4,4,4,,,,,2018_Oct_12_1213,60.2449532443,test_experiment,002,pilot_shivani,
6,short,distractor,t1,Z,24,0,0,0,0,23,0,23,0,0,5,5,5,,,,,2018_Oct_12_1213,60.2449532443,test_experiment,002,pilot_shivani,
7,short,distractor,t1,F,24,0,0,0,0,23,0,23,0,0,6,6,6,,,,,2018_Oct_12_1213,60.2449532443,test_experiment,002,pilot_shivani,
8,short,mask,t1, ,24,0,0,0,0,23,0,23,0,0,7,7,7,,,,,2018_Oct_12_1213,60.2449532443,test_experiment,002,pilot_shivani,
9,short,distractor,t1,J,24,0,0,0,0,23,0,23,0,0,8,8,8,,,,,2018_Oct_12_1213,60.2449532443,test_experiment,002,pilot_shivani,
10,short,distractor,t1,F,24,0,0,0,0,23,0,23,0,0,9,9,9,,,,,2018_Oct_12_1213,60.2449532443,test_experiment,002,pilot_shivani,
11,short,distractor,t1,D,24,0,0,0,0,23,0,23,0,0,10,10,10,,,,,2018_Oct_12_1213,60.2449532443,test_experiment,002,pilot_shivani,
12,short,distractor,t1,Q,24,0,0,0,0,23,0,23,0,0,11,11,11,,,,,2018_Oct_12_1213,60.2449532443,test_experiment,002,pilot_shivani,
13,short,distractor,t1,F,24,0,0,0,0,23,0,23,0,0,12,12,12,,,,,2018_Oct_12_1213,60.2449532443,test_experiment,002,pilot_shivani,
14,short,distractor,t1,Q,24,0,0,0,0,23,0,23,0,0,13,13,13,,,,,2018_Oct_12_1213,60.2449532443,test_experiment,002,pilot_shivani,
15,short,distractor,t1,C,24,0,0,0,0,23,0,23,0,0,14,14,14,,,,,2018_Oct_12_1213,60.2449532443,test_experiment,002,pilot_shivani,
,,,,,,0,0,0,0,23,0,23,0,,,,,8,0.634315307951,7,0.36818279617,2018_Oct_12_1213,60.2449532443,test_experiment,002,pilot_shivani,
1,long,distractor,t2,O,25,0,0,0,0,24,0,24,0,0,0,0,0,,,,,2018_Oct_12_1213,60.2449532443,test_experiment,002,pilot_shivani,
2,long,distractor,t2,Q,25,0,0,0,0,24,0,24,0,0,1,1,1,,,,,2018_Oct_12_1213,60.2449532443,test_experiment,002,pilot_shivani,
3,long,distractor,t2,N,25,0,0,0,0,24,0,24,0,0,2,2,2,,,,,2018_Oct_12_1213,60.2449532443,test_experiment,002,pilot_shivani,
4,long,distractor,t2,X,25,0,0,0,0,24,0,24,0,0,3,3,3,,,,,2018_Oct_12_1213,60.2449532443,test_experiment,002,pilot_shivani,
5,long,distractor,t2,X,25,0,0,0,0,24,0,24,0,0,4,4,4,,,,,2018_Oct_12_1213,60.2449532443,test_experiment,002,pilot_shivani,
6,long,target,t2,5,25,0,0,0,0,24,0,24,0,0,5,5,5,,,,,2018_Oct_12_1213,60.2449532443,test_experiment,002,pilot_shivani,
7,long,distractor,t2,S,25,0,0,0,0,24,0,24,0,0,6,6,6,,,,,2018_Oct_12_1213,60.2449532443,test_experiment,002,pilot_shivani,
8,long,distractor,t2,L,25,0,0,0,0,24,0,24,0,0,7,7,7,,,,,2018_Oct_12_1213,60.2449532443,test_experiment,002,pilot_shivani,
9,long,distractor,t2,G,25,0,0,0,0,24,0,24,0,0,8,8,8,,,,,2018_Oct_12_1213,60.2449532443,test_experiment,002,pilot_shivani,
10,long,distractor,t2,Q,25,0,0,0,0,24,0,24,0,0,9,9,9,,,,,2018_Oct_12_1213,60.2449532443,test_experiment,002,pilot_shivani,
11,long,distractor,t2,N,25,0,0,0,0,24,0,24,0,0,10,10,10,,,,,2018_Oct_12_1213,60.2449532443,test_experiment,002,pilot_shivani,
12,long,distractor,t2,M,25,0,0,0,0,24,0,24,0,0,11,11,11,,,,,2018_Oct_12_1213,60.2449532443,test_experiment,002,pilot_shivani,
13,long,distractor,t2,T,25,0,0,0,0,24,0,24,0,0,12,12,12,,,,,2018_Oct_12_1213,60.2449532443,test_experiment,002,pilot_shivani,
14,long,target,t2,4,25,0,0,0,0,24,0,24,0,0,13,13,13,,,,,2018_Oct_12_1213,60.2449532443,test_experiment,002,pilot_shivani,
15,long,distractor,t2,M,25,0,0,0,0,24,0,24,0,0,14,14,14,,,,,2018_Oct_12_1213,60.2449532443,test_experiment,002,pilot_shivani,
16,long,distractor,t2,D,25,0,0,0,0,24,0,24,0,0,15,15,15,,,,,2018_Oct_12_1213,60.2449532443,test_experiment,002,pilot_shivani,
17,long,distractor,t2,B,25,0,0,0,0,24,0,24,0,0,16,16,16,,,,,2018_Oct_12_1213,60.2449532443,test_experiment,002,pilot_shivani,
18,long,distractor,t2,R,25,0,0,0,0,24,0,24,0,0,17,17,17,,,,,2018_Oct_12_1213,60.2449532443,test_experiment,002,pilot_shivani,
,,,,,,0,0,0,0,24,0,24,0,,,,,5,1.11729761271,4,0.385417129844,2018_Oct_12_1213,60.2449532443,test_experiment,002,pilot_shivani,
1,short,distractor,t1,X,26,0,0,0,0,25,0,25,0,0,0,0,0,,,,,2018_Oct_12_1213,60.2449532443,test_experiment,002,pilot_shivani,
2,short,distractor,t1,S,26,0,0,0,0,25,0,25,0,0,1,1,1,,,,,2018_Oct_12_1213,60.2449532443,test_experiment,002,pilot_shivani,
3,short,distractor,t1,D,26,0,0,0,0,25,0,25,0,0,2,2,2,,,,,2018_Oct_12_1213,60.2449532443,test_experiment,002,pilot_shivani,
4,short,distractor,t1,Y,26,0,0,0,0,25,0,25,0,0,3,3,3,,,,,2018_Oct_12_1213,60.2449532443,test_experiment,002,pilot_shivani,
5,short,distractor,t1,W,26,0,0,0,0,25,0,25,0,0,4,4,4,,,,,2018_Oct_12_1213,60.2449532443,test_experiment,002,pilot_shivani,
6,short,target,t1,7,26,0,0,0,0,25,0,25,0,0,5,5,5,,,,,2018_Oct_12_1213,60.2449532443,test_experiment,002,pilot_shivani,
7,short,distractor,t1,D,26,0,0,0,0,25,0,25,0,0,6,6,6,,,,,2018_Oct_12_1213,60.2449532443,test_experiment,002,pilot_shivani,
8,short,distractor,t1,N,26,0,0,0,0,25,0,25,0,0,7,7,7,,,,,2018_Oct_12_1213,60.2449532443,test_experiment,002,pilot_shivani,
9,short,distractor,t1,Y,26,0,0,0,0,25,0,25,0,0,8,8,8,,,,,2018_Oct_12_1213,60.2449532443,test_experiment,002,pilot_shivani,
10,short,mask,t1, ,26,0,0,0,0,25,0,25,0,0,9,9,9,,,,,2018_Oct_12_1213,60.2449532443,test_experiment,002,pilot_shivani,
11,short,distractor,t1,J,26,0,0,0,0,25,0,25,0,0,10,10,10,,,,,2018_Oct_12_1213,60.2449532443,test_experiment,002,pilot_shivani,
12,short,distractor,t1,D,26,0,0,0,0,25,0,25,0,0,11,11,11,,,,,2018_Oct_12_1213,60.2449532443,test_experiment,002,pilot_shivani,
13,short,distractor,t1,X,26,0,0,0,0,25,0,25,0,0,12,12,12,,,,,2018_Oct_12_1213,60.2449532443,test_experiment,002,pilot_shivani,
14,short,distractor,t1,P,26,0,0,0,0,25,0,25,0,0,13,13,13,,,,,2018_Oct_12_1213,60.2449532443,test_experiment,002,pilot_shivani,
15,short,distractor,t1,B,26,0,0,0,0,25,0,25,0,0,14,14,14,,,,,2018_Oct_12_1213,60.2449532443,test_experiment,002,pilot_shivani,
16,short,distractor,t1,L,26,0,0,0,0,25,0,25,0,0,15,15,15,,,,,2018_Oct_12_1213,60.2449532443,test_experiment,002,pilot_shivani,
,,,,,,0,0,0,0,25,0,25,0,,,,,7,1.70202762878,5,0.485099713784,2018_Oct_12_1213,60.2449532443,test_experiment,002,pilot_shivani,
1,long,distractor,t2,H,27,0,0,0,0,26,0,26,0,0,0,0,0,,,,,2018_Oct_12_1213,60.2449532443,test_experiment,002,pilot_shivani,
2,long,target,t2,7,27,0,0,0,0,26,0,26,0,0,1,1,1,,,,,2018_Oct_12_1213,60.2449532443,test_experiment,002,pilot_shivani,
3,long,distractor,t2,R,27,0,0,0,0,26,0,26,0,0,2,2,2,,,,,2018_Oct_12_1213,60.2449532443,test_experiment,002,pilot_shivani,
4,long,distractor,t2,D,27,0,0,0,0,26,0,26,0,0,3,3,3,,,,,2018_Oct_12_1213,60.2449532443,test_experiment,002,pilot_shivani,
5,long,distractor,t2,R,27,0,0,0,0,26,0,26,0,0,4,4,4,,,,,2018_Oct_12_1213,60.2449532443,test_experiment,002,pilot_shivani,
6,long,distractor,t2,J,27,0,0,0,0,26,0,26,0,0,5,5,5,,,,,2018_Oct_12_1213,60.2449532443,test_experiment,002,pilot_shivani,
7,long,distractor,t2,P,27,0,0,0,0,26,0,26,0,0,6,6,6,,,,,2018_Oct_12_1213,60.2449532443,test_experiment,002,pilot_shivani,
8,long,distractor,t2,Z,27,0,0,0,0,26,0,26,0,0,7,7,7,,,,,2018_Oct_12_1213,60.2449532443,test_experiment,002,pilot_shivani,
9,long,distractor,t2,D,27,0,0,0,0,26,0,26,0,0,8,8,8,,,,,2018_Oct_12_1213,60.2449532443,test_experiment,002,pilot_shivani,
10,long,target,t2,2,27,0,0,0,0,26,0,26,0,0,9,9,9,,,,,2018_Oct_12_1213,60.2449532443,test_experiment,002,pilot_shivani,
11,long,distractor,t2,M,27,0,0,0,0,26,0,26,0,0,10,10,10,,,,,2018_Oct_12_1213,60.2449532443,test_experiment,002,pilot_shivani,
12,long,distractor,t2,A,27,0,0,0,0,26,0,26,0,0,11,11,11,,,,,2018_Oct_12_1213,60.2449532443,test_experiment,002,pilot_shivani,
13,long,distractor,t2,H,27,0,0,0,0,26,0,26,0,0,12,12,12,,,,,2018_Oct_12_1213,60.2449532443,test_experiment,002,pilot_shivani,
14,long,distractor,t2,O,27,0,0,0,0,26,0,26,0,0,13,13,13,,,,,2018_Oct_12_1213,60.2449532443,test_experiment,002,pilot_shivani,
15,long,distractor,t2,L,27,0,0,0,0,26,0,26,0,0,14,14,14,,,,,2018_Oct_12_1213,60.2449532443,test_experiment,002,pilot_shivani,
,,,,,,0,0,0,0,26,0,26,0,,,,,7,0.717504816595,2,0.468511389568,2018_Oct_12_1213,60.2449532443,test_experiment,002,pilot_shivani,
1,short,distractor,t1,D,28,0,0,0,0,27,0,27,0,0,0,0,0,,,,,2018_Oct_12_1213,60.2449532443,test_experiment,002,pilot_shivani,
2,short,distractor,t1,P,28,0,0,0,0,27,0,27,0,0,1,1,1,,,,,2018_Oct_12_1213,60.2449532443,test_experiment,002,pilot_shivani,
3,short,distractor,t1,Y,28,0,0,0,0,27,0,27,0,0,2,2,2,,,,,2018_Oct_12_1213,60.2449532443,test_experiment,002,pilot_shivani,
4,short,distractor,t1,S,28,0,0,0,0,27,0,27,0,0,3,3,3,,,,,2018_Oct_12_1213,60.2449532443,test_experiment,002,pilot_shivani,
5,short,distractor,t1,L,28,0,0,0,0,27,0,27,0,0,4,4,4,,,,,2018_Oct_12_1213,60.2449532443,test_experiment,002,pilot_shivani,
6,short,distractor,t1,G,28,0,0,0,0,27,0,27,0,0,5,5,5,,,,,2018_Oct_12_1213,60.2449532443,test_experiment,002,pilot_shivani,
7,short,distractor,t1,M,28,0,0,0,0,27,0,27,0,0,6,6,6,,,,,2018_Oct_12_1213,60.2449532443,test_experiment,002,pilot_shivani,
8,short,distractor,t1,U,28,0,0,0,0,27,0,27,0,0,7,7,7,,,,,2018_Oct_12_1213,60.2449532443,test_experiment,002,pilot_shivani,
9,short,distractor,t1,M,28,0,0,0,0,27,0,27,0,0,8,8,8,,,,,2018_Oct_12_1213,60.2449532443,test_experiment,002,pilot_shivani,
10,short,distractor,t1,J,28,0,0,0,0,27,0,27,0,0,9,9,9,,,,,2018_Oct_12_1213,60.2449532443,test_experiment,002,pilot_shivani,
11,short,distractor,t1,S,28,0,0,0,0,27,0,27,0,0,10,10,10,,,,,2018_Oct_12_1213,60.2449532443,test_experiment,002,pilot_shivani,
12,short,target,t1,4,28,0,0,0,0,27,0,27,0,0,11,11,11,,,,,2018_Oct_12_1213,60.2449532443,test_experiment,002,pilot_shivani,
13,short,distractor,t1,V,28,0,0,0,0,27,0,27,0,0,12,12,12,,,,,2018_Oct_12_1213,60.2449532443,test_experiment,002,pilot_shivani,
14,short,distractor,t1,W,28,0,0,0,0,27,0,27,0,0,13,13,13,,,,,2018_Oct_12_1213,60.2449532443,test_experiment,002,pilot_shivani,
15,short,distractor,t1,B,28,0,0,0,0,27,0,27,0,0,14,14,14,,,,,2018_Oct_12_1213,60.2449532443,test_experiment,002,pilot_shivani,
16,short,mask,t1, ,28,0,0,0,0,27,0,27,0,0,15,15,15,,,,,2018_Oct_12_1213,60.2449532443,test_experiment,002,pilot_shivani,
17,short,distractor,t1,S,28,0,0,0,0,27,0,27,0,0,16,16,16,,,,,2018_Oct_12_1213,60.2449532443,test_experiment,002,pilot_shivani,
,,,,,,0,0,0,0,27,0,27,0,,,,,4,0.684438139899,3,0.402011463535,2018_Oct_12_1213,60.2449532443,test_experiment,002,pilot_shivani,
1,short,target,t1,2,29,0,0,0,0,28,0,28,0,0,0,0,0,,,,,2018_Oct_12_1213,60.2449532443,test_experiment,002,pilot_shivani,
2,short,distractor,t1,Q,29,0,0,0,0,28,0,28,0,0,1,1,1,,,,,2018_Oct_12_1213,60.2449532443,test_experiment,002,pilot_shivani,
3,short,distractor,t1,T,29,0,0,0,0,28,0,28,0,0,2,2,2,,,,,2018_Oct_12_1213,60.2449532443,test_experiment,002,pilot_shivani,
4,short,distractor,t1,H,29,0,0,0,0,28,0,28,0,0,3,3,3,,,,,2018_Oct_12_1213,60.2449532443,test_experiment,002,pilot_shivani,
5,short,mask,t1, ,29,0,0,0,0,28,0,28,0,0,4,4,4,,,,,2018_Oct_12_1213,60.2449532443,test_experiment,002,pilot_shivani,
6,short,distractor,t1,L,29,0,0,0,0,28,0,28,0,0,5,5,5,,,,,2018_Oct_12_1213,60.2449532443,test_experiment,002,pilot_shivani,
7,short,distractor,t1,S,29,0,0,0,0,28,0,28,0,0,6,6,6,,,,,2018_Oct_12_1213,60.2449532443,test_experiment,002,pilot_shivani,
8,short,distractor,t1,E,29,0,0,0,0,28,0,28,0,0,7,7,7,,,,,2018_Oct_12_1213,60.2449532443,test_experiment,002,pilot_shivani,
9,short,distractor,t1,O,29,0,0,0,0,28,0,28,0,0,8,8,8,,,,,2018_Oct_12_1213,60.2449532443,test_experiment,002,pilot_shivani,
10,short,distractor,t1,V,29,0,0,0,0,28,0,28,0,0,9,9,9,,,,,2018_Oct_12_1213,60.2449532443,test_experiment,002,pilot_shivani,
11,short,distractor,t1,E,29,0,0,0,0,28,0,28,0,0,10,10,10,,,,,2018_Oct_12_1213,60.2449532443,test_experiment,002,pilot_shivani,
12,short,distractor,t1,V,29,0,0,0,0,28,0,28,0,0,11,11,11,,,,,2018_Oct_12_1213,60.2449532443,test_experiment,002,pilot_shivani,
13,short,distractor,t1,Z,29,0,0,0,0,28,0,28,0,0,12,12,12,,,,,2018_Oct_12_1213,60.2449532443,test_experiment,002,pilot_shivani,
14,short,distractor,t1,G,29,0,0,0,0,28,0,28,0,0,13,13,13,,,,,2018_Oct_12_1213,60.2449532443,test_experiment,002,pilot_shivani,
15,short,distractor,t1,Y,29,0,0,0,0,28,0,28,0,0,14,14,14,,,,,2018_Oct_12_1213,60.2449532443,test_experiment,002,pilot_shivani,
16,short,distractor,t1,S,29,0,0,0,0,28,0,28,0,0,15,15,15,,,,,2018_Oct_12_1213,60.2449532443,test_experiment,002,pilot_shivani,
,,,,,,0,0,0,0,28,0,28,0,,,,,2,0.200929412502,1,0.368251904147,2018_Oct_12_1213,60.2449532443,test_experiment,002,pilot_shivani,
1,short,distractor,t1,L,30,0,0,0,0,29,0,29,0,0,0,0,0,,,,,2018_Oct_12_1213,60.2449532443,test_experiment,002,pilot_shivani,
2,short,distractor,t1,M,30,0,0,0,0,29,0,29,0,0,1,1,1,,,,,2018_Oct_12_1213,60.2449532443,test_experiment,002,pilot_shivani,
3,short,distractor,t1,W,30,0,0,0,0,29,0,29,0,0,2,2,2,,,,,2018_Oct_12_1213,60.2449532443,test_experiment,002,pilot_shivani,
4,short,distractor,t1,R,30,0,0,0,0,29,0,29,0,0,3,3,3,,,,,2018_Oct_12_1213,60.2449532443,test_experiment,002,pilot_shivani,
5,short,distractor,t1,A,30,0,0,0,0,29,0,29,0,0,4,4,4,,,,,2018_Oct_12_1213,60.2449532443,test_experiment,002,pilot_shivani,
6,short,distractor,t1,A,30,0,0,0,0,29,0,29,0,0,5,5,5,,,,,2018_Oct_12_1213,60.2449532443,test_experiment,002,pilot_shivani,
7,short,distractor,t1,L,30,0,0,0,0,29,0,29,0,0,6,6,6,,,,,2018_Oct_12_1213,60.2449532443,test_experiment,002,pilot_shivani,
8,short,distractor,t1,V,30,0,0,0,0,29,0,29,0,0,7,7,7,,,,,2018_Oct_12_1213,60.2449532443,test_experiment,002,pilot_shivani,
9,short,target,t1,6,30,0,0,0,0,29,0,29,0,0,8,8,8,,,,,2018_Oct_12_1213,60.2449532443,test_experiment,002,pilot_shivani,
10,short,distractor,t1,G,30,0,0,0,0,29,0,29,0,0,9,9,9,,,,,2018_Oct_12_1213,60.2449532443,test_experiment,002,pilot_shivani,
11,short,distractor,t1,P,30,0,0,0,0,29,0,29,0,0,10,10,10,,,,,2018_Oct_12_1213,60.2449532443,test_experiment,002,pilot_shivani,
12,short,distractor,t1,B,30,0,0,0,0,29,0,29,0,0,11,11,11,,,,,2018_Oct_12_1213,60.2449532443,test_experiment,002,pilot_shivani,
13,short,mask,t1, ,30,0,0,0,0,29,0,29,0,0,12,12,12,,,,,2018_Oct_12_1213,60.2449532443,test_experiment,002,pilot_shivani,
14,short,distractor,t1,A,30,0,0,0,0,29,0,29,0,0,13,13,13,,,,,2018_Oct_12_1213,60.2449532443,test_experiment,002,pilot_shivani,
15,short,distractor,t1,Q,30,0,0,0,0,29,0,29,0,0,14,14,14,,,,,2018_Oct_12_1213,60.2449532443,test_experiment,002,pilot_shivani,
,,,,,,0,0,0,0,29,0,29,0,,,,,6,0.467815201613,4,0.366468617227,2018_Oct_12_1213,60.2449532443,test_experiment,002,pilot_shivani,
1,short,distractor,t1,U,31,0,0,0,0,30,0,30,0,0,0,0,0,,,,,2018_Oct_12_1213,60.2449532443,test_experiment,002,pilot_shivani,
2,short,distractor,t1,G,31,0,0,0,0,30,0,30,0,0,1,1,1,,,,,2018_Oct_12_1213,60.2449532443,test_experiment,002,pilot_shivani,
3,short,distractor,t1,B,31,0,0,0,0,30,0,30,0,0,2,2,2,,,,,2018_Oct_12_1213,60.2449532443,test_experiment,002,pilot_shivani,
4,short,distractor,t1,T,31,0,0,0,0,30,0,30,0,0,3,3,3,,,,,2018_Oct_12_1213,60.2449532443,test_experiment,002,pilot_shivani,
5,short,distractor,t1,J,31,0,0,0,0,30,0,30,0,0,4,4,4,,,,,2018_Oct_12_1213,60.2449532443,test_experiment,002,pilot_shivani,
6,short,target,t1,4,31,0,0,0,0,30,0,30,0,0,5,5,5,,,,,2018_Oct_12_1213,60.2449532443,test_experiment,002,pilot_shivani,
7,short,distractor,t1,G,31,0,0,0,0,30,0,30,0,0,6,6,6,,,,,2018_Oct_12_1213,60.2449532443,test_experiment,002,pilot_shivani,
8,short,distractor,t1,R,31,0,0,0,0,30,0,30,0,0,7,7,7,,,,,2018_Oct_12_1213,60.2449532443,test_experiment,002,pilot_shivani,
9,short,distractor,t1,X,31,0,0,0,0,30,0,30,0,0,8,8,8,,,,,2018_Oct_12_1213,60.2449532443,test_experiment,002,pilot_shivani,
10,short,mask,t1, ,31,0,0,0,0,30,0,30,0,0,9,9,9,,,,,2018_Oct_12_1213,60.2449532443,test_experiment,002,pilot_shivani,
11,short,distractor,t1,V,31,0,0,0,0,30,0,30,0,0,10,10,10,,,,,2018_Oct_12_1213,60.2449532443,test_experiment,002,pilot_shivani,
12,short,distractor,t1,W,31,0,0,0,0,30,0,30,0,0,11,11,11,,,,,2018_Oct_12_1213,60.2449532443,test_experiment,002,pilot_shivani,
13,short,distractor,t1,F,31,0,0,0,0,30,0,30,0,0,12,12,12,,,,,2018_Oct_12_1213,60.2449532443,test_experiment,002,pilot_shivani,
14,short,distractor,t1,L,31,0,0,0,0,30,0,30,0,0,13,13,13,,,,,2018_Oct_12_1213,60.2449532443,test_experiment,002,pilot_shivani,
15,short,distractor,t1,W,31,0,0,0,0,30,0,30,0,0,14,14,14,,,,,2018_Oct_12_1213,60.2449532443,test_experiment,002,pilot_shivani,
16,short,distractor,t1,I,31,0,0,0,0,30,0,30,0,0,15,15,15,,,,,2018_Oct_12_1213,60.2449532443,test_experiment,002,pilot_shivani,
17,short,distractor,t1,F,31,0,0,0,0,30,0,30,0,0,16,16,16,,,,,2018_Oct_12_1213,60.2449532443,test_experiment,002,pilot_shivani,
18,short,distractor,t1,Q,31,0,0,0,0,30,0,30,0,0,17,17,17,,,,,2018_Oct_12_1213,60.2449532443,test_experiment,002,pilot_shivani,
,,,,,,0,0,0,0,30,0,30,0,,,,,4,1.11742921837,4,0.451000623754,2018_Oct_12_1213,60.2449532443,test_experiment,002,pilot_shivani,
1,short,distractor,t2,U,32,0,0,0,0,31,0,31,0,0,0,0,0,,,,,2018_Oct_12_1213,60.2449532443,test_experiment,002,pilot_shivani,
2,short,distractor,t2,S,32,0,0,0,0,31,0,31,0,0,1,1,1,,,,,2018_Oct_12_1213,60.2449532443,test_experiment,002,pilot_shivani,
3,short,distractor,t2,X,32,0,0,0,0,31,0,31,0,0,2,2,2,,,,,2018_Oct_12_1213,60.2449532443,test_experiment,002,pilot_shivani,
4,short,distractor,t2,R,32,0,0,0,0,31,0,31,0,0,3,3,3,,,,,2018_Oct_12_1213,60.2449532443,test_experiment,002,pilot_shivani,
5,short,target,t2,6,32,0,0,0,0,31,0,31,0,0,4,4,4,,,,,2018_Oct_12_1213,60.2449532443,test_experiment,002,pilot_shivani,
6,short,distractor,t2,Z,32,0,0,0,0,31,0,31,0,0,5,5,5,,,,,2018_Oct_12_1213,60.2449532443,test_experiment,002,pilot_shivani,
7,short,distractor,t2,T,32,0,0,0,0,31,0,31,0,0,6,6,6,,,,,2018_Oct_12_1213,60.2449532443,test_experiment,002,pilot_shivani,
8,short,distractor,t2,L,32,0,0,0,0,31,0,31,0,0,7,7,7,,,,,2018_Oct_12_1213,60.2449532443,test_experiment,002,pilot_shivani,
9,short,target,t2,8,32,0,0,0,0,31,0,31,0,0,8,8,8,,,,,2018_Oct_12_1213,60.2449532443,test_experiment,002,pilot_shivani,
10,short,distractor,t2,M,32,0,0,0,0,31,0,31,0,0,9,9,9,,,,,2018_Oct_12_1213,60.2449532443,test_experiment,002,pilot_shivani,
11,short,distractor,t2,E,32,0,0,0,0,31,0,31,0,0,10,10,10,,,,,2018_Oct_12_1213,60.2449532443,test_experiment,002,pilot_shivani,
12,short,distractor,t2,Y,32,0,0,0,0,31,0,31,0,0,11,11,11,,,,,2018_Oct_12_1213,60.2449532443,test_experiment,002,pilot_shivani,
13,short,distractor,t2,M,32,0,0,0,0,31,0,31,0,0,12,12,12,,,,,2018_Oct_12_1213,60.2449532443,test_experiment,002,pilot_shivani,
14,short,distractor,t2,I,32,0,0,0,0,31,0,31,0,0,13,13,13,,,,,2018_Oct_12_1213,60.2449532443,test_experiment,002,pilot_shivani,
15,short,distractor,t2,K,32,0,0,0,0,31,0,31,0,0,14,14,14,,,,,2018_Oct_12_1213,60.2449532443,test_experiment,002,pilot_shivani,
16,short,mask,t2, ,32,0,0,0,0,31,0,31,0,0,15,15,15,,,,,2018_Oct_12_1213,60.2449532443,test_experiment,002,pilot_shivani,
17,short,distractor,t2,U,32,0,0,0,0,31,0,31,0,0,16,16,16,,,,,2018_Oct_12_1213,60.2449532443,test_experiment,002,pilot_shivani,
,,,,,,0,0,0,0,31,0,31,0,,,,,6,1.20088794769,8,0.366420542006,2018_Oct_12_1213,60.2449532443,test_experiment,002,pilot_shivani,
1,short,distractor,t2,N,33,0,0,0,0,32,0,32,0,0,0,0,0,,,,,2018_Oct_12_1213,60.2449532443,test_experiment,002,pilot_shivani,
2,short,distractor,t2,Z,33,0,0,0,0,32,0,32,0,0,1,1,1,,,,,2018_Oct_12_1213,60.2449532443,test_experiment,002,pilot_shivani,
3,short,distractor,t2,S,33,0,0,0,0,32,0,32,0,0,2,2,2,,,,,2018_Oct_12_1213,60.2449532443,test_experiment,002,pilot_shivani,
4,short,distractor,t2,C,33,0,0,0,0,32,0,32,0,0,3,3,3,,,,,2018_Oct_12_1213,60.2449532443,test_experiment,002,pilot_shivani,
5,short,distractor,t2,W,33,0,0,0,0,32,0,32,0,0,4,4,4,,,,,2018_Oct_12_1213,60.2449532443,test_experiment,002,pilot_shivani,
6,short,distractor,t2,J,33,0,0,0,0,32,0,32,0,0,5,5,5,,,,,2018_Oct_12_1213,60.2449532443,test_experiment,002,pilot_shivani,
7,short,distractor,t2,V,33,0,0,0,0,32,0,32,0,0,6,6,6,,,,,2018_Oct_12_1213,60.2449532443,test_experiment,002,pilot_shivani,
8,short,distractor,t2,A,33,0,0,0,0,32,0,32,0,0,7,7,7,,,,,2018_Oct_12_1213,60.2449532443,test_experiment,002,pilot_shivani,
9,short,distractor,t2,Y,33,0,0,0,0,32,0,32,0,0,8,8,8,,,,,2018_Oct_12_1213,60.2449532443,test_experiment,002,pilot_shivani,
10,short,target,t2,7,33,0,0,0,0,32,0,32,0,0,9,9,9,,,,,2018_Oct_12_1213,60.2449532443,test_experiment,002,pilot_shivani,
11,short,distractor,t2,Y,33,0,0,0,0,32,0,32,0,0,10,10,10,,,,,2018_Oct_12_1213,60.2449532443,test_experiment,002,pilot_shivani,
12,short,distractor,t2,A,33,0,0,0,0,32,0,32,0,0,11,11,11,,,,,2018_Oct_12_1213,60.2449532443,test_experiment,002,pilot_shivani,
13,short,distractor,t2,I,33,0,0,0,0,32,0,32,0,0,12,12,12,,,,,2018_Oct_12_1213,60.2449532443,test_experiment,002,pilot_shivani,
14,short,target,t2,5,33,0,0,0,0,32,0,32,0,0,13,13,13,,,,,2018_Oct_12_1213,60.2449532443,test_experiment,002,pilot_shivani,
15,short,distractor,t2,H,33,0,0,0,0,32,0,32,0,0,14,14,14,,,,,2018_Oct_12_1213,60.2449532443,test_experiment,002,pilot_shivani,
16,short,distractor,t2,Z,33,0,0,0,0,32,0,32,0,0,15,15,15,,,,,2018_Oct_12_1213,60.2449532443,test_experiment,002,pilot_shivani,
17,short,distractor,t2,R,33,0,0,0,0,32,0,32,0,0,16,16,16,,,,,2018_Oct_12_1213,60.2449532443,test_experiment,002,pilot_shivani,
18,short,distractor,t2,D,33,0,0,0,0,32,0,32,0,0,17,17,17,,,,,2018_Oct_12_1213,60.2449532443,test_experiment,002,pilot_shivani,
,,,,,,0,0,0,0,32,0,32,0,,,,,8,0.134470049758,1,0.584835781367,2018_Oct_12_1213,60.2449532443,test_experiment,002,pilot_shivani,
1,short,mask,t2, ,34,0,0,0,0,33,0,33,0,0,0,0,0,,,,,2018_Oct_12_1213,60.2449532443,test_experiment,002,pilot_shivani,
2,short,distractor,t2,J,34,0,0,0,0,33,0,33,0,0,1,1,1,,,,,2018_Oct_12_1213,60.2449532443,test_experiment,002,pilot_shivani,
3,short,distractor,t2,X,34,0,0,0,0,33,0,33,0,0,2,2,2,,,,,2018_Oct_12_1213,60.2449532443,test_experiment,002,pilot_shivani,
4,short,distractor,t2,N,34,0,0,0,0,33,0,33,0,0,3,3,3,,,,,2018_Oct_12_1213,60.2449532443,test_experiment,002,pilot_shivani,
5,short,distractor,t2,H,34,0,0,0,0,33,0,33,0,0,4,4,4,,,,,2018_Oct_12_1213,60.2449532443,test_experiment,002,pilot_shivani,
6,short,distractor,t2,H,34,0,0,0,0,33,0,33,0,0,5,5,5,,,,,2018_Oct_12_1213,60.2449532443,test_experiment,002,pilot_shivani,
7,short,distractor,t2,F,34,0,0,0,0,33,0,33,0,0,6,6,6,,,,,2018_Oct_12_1213,60.2449532443,test_experiment,002,pilot_shivani,
8,short,distractor,t2,H,34,0,0,0,0,33,0,33,0,0,7,7,7,,,,,2018_Oct_12_1213,60.2449532443,test_experiment,002,pilot_shivani,
9,short,target,t2,4,34,0,0,0,0,33,0,33,0,0,8,8,8,,,,,2018_Oct_12_1213,60.2449532443,test_experiment,002,pilot_shivani,
10,short,distractor,t2,C,34,0,0,0,0,33,0,33,0,0,9,9,9,,,,,2018_Oct_12_1213,60.2449532443,test_experiment,002,pilot_shivani,
11,short,distractor,t2,U,34,0,0,0,0,33,0,33,0,0,10,10,10,,,,,2018_Oct_12_1213,60.2449532443,test_experiment,002,pilot_shivani,
12,short,distractor,t2,T,34,0,0,0,0,33,0,33,0,0,11,11,11,,,,,2018_Oct_12_1213,60.2449532443,test_experiment,002,pilot_shivani,
13,short,target,t2,7,34,0,0,0,0,33,0,33,0,0,12,12,12,,,,,2018_Oct_12_1213,60.2449532443,test_experiment,002,pilot_shivani,
14,short,distractor,t2,Q,34,0,0,0,0,33,0,33,0,0,13,13,13,,,,,2018_Oct_12_1213,60.2449532443,test_experiment,002,pilot_shivani,
15,short,distractor,t2,U,34,0,0,0,0,33,0,33,0,0,14,14,14,,,,,2018_Oct_12_1213,60.2449532443,test_experiment,002,pilot_shivani,
,,,,,,0,0,0,0,33,0,33,0,,,,,4,0.166891618166,5,0.382793129189,2018_Oct_12_1213,60.2449532443,test_experiment,002,pilot_shivani,
1,long,distractor,t2,V,35,0,0,0,0,34,0,34,0,0,0,0,0,,,,,2018_Oct_12_1213,60.2449532443,test_experiment,002,pilot_shivani,
2,long,distractor,t2,D,35,0,0,0,0,34,0,34,0,0,1,1,1,,,,,2018_Oct_12_1213,60.2449532443,test_experiment,002,pilot_shivani,
3,long,distractor,t2,C,35,0,0,0,0,34,0,34,0,0,2,2,2,,,,,2018_Oct_12_1213,60.2449532443,test_experiment,002,pilot_shivani,
4,long,distractor,t2,S,35,0,0,0,0,34,0,34,0,0,3,3,3,,,,,2018_Oct_12_1213,60.2449532443,test_experiment,002,pilot_shivani,
5,long,distractor,t2,P,35,0,0,0,0,34,0,34,0,0,4,4,4,,,,,2018_Oct_12_1213,60.2449532443,test_experiment,002,pilot_shivani,
6,long,distractor,t2,A,35,0,0,0,0,34,0,34,0,0,5,5,5,,,,,2018_Oct_12_1213,60.2449532443,test_experiment,002,pilot_shivani,
7,long,distractor,t2,Z,35,0,0,0,0,34,0,34,0,0,6,6,6,,,,,2018_Oct_12_1213,60.2449532443,test_experiment,002,pilot_shivani,
8,long,target,t2,7,35,0,0,0,0,34,0,34,0,0,7,7,7,,,,,2018_Oct_12_1213,60.2449532443,test_experiment,002,pilot_shivani,
9,long,distractor,t2,K,35,0,0,0,0,34,0,34,0,0,8,8,8,,,,,2018_Oct_12_1213,60.2449532443,test_experiment,002,pilot_shivani,
10,long,distractor,t2,Y,35,0,0,0,0,34,0,34,0,0,9,9,9,,,,,2018_Oct_12_1213,60.2449532443,test_experiment,002,pilot_shivani,
11,long,mask,t2, ,35,0,0,0,0,34,0,34,0,0,10,10,10,,,,,2018_Oct_12_1213,60.2449532443,test_experiment,002,pilot_shivani,
12,long,distractor,t2,V,35,0,0,0,0,34,0,34,0,0,11,11,11,,,,,2018_Oct_12_1213,60.2449532443,test_experiment,002,pilot_shivani,
13,long,distractor,t2,T,35,0,0,0,0,34,0,34,0,0,12,12,12,,,,,2018_Oct_12_1213,60.2449532443,test_experiment,002,pilot_shivani,
14,long,distractor,t2,T,35,0,0,0,0,34,0,34,0,0,13,13,13,,,,,2018_Oct_12_1213,60.2449532443,test_experiment,002,pilot_shivani,
15,long,distractor,t2,G,35,0,0,0,0,34,0,34,0,0,14,14,14,,,,,2018_Oct_12_1213,60.2449532443,test_experiment,002,pilot_shivani,
16,long,target,t2,6,35,0,0,0,0,34,0,34,0,0,15,15,15,,,,,2018_Oct_12_1213,60.2449532443,test_experiment,002,pilot_shivani,
17,long,distractor,t2,Q,35,0,0,0,0,34,0,34,0,0,16,16,16,,,,,2018_Oct_12_1213,60.2449532443,test_experiment,002,pilot_shivani,
,,,,,,0,0,0,0,34,0,34,0,,,,,6,0.567741766805,1,0.41768335551,2018_Oct_12_1213,60.2449532443,test_experiment,002,pilot_shivani,
1,long,distractor,t2,B,36,0,0,0,0,35,0,35,0,0,0,0,0,,,,,2018_Oct_12_1213,60.2449532443,test_experiment,002,pilot_shivani,
2,long,distractor,t2,B,36,0,0,0,0,35,0,35,0,0,1,1,1,,,,,2018_Oct_12_1213,60.2449532443,test_experiment,002,pilot_shivani,
3,long,distractor,t2,K,36,0,0,0,0,35,0,35,0,0,2,2,2,,,,,2018_Oct_12_1213,60.2449532443,test_experiment,002,pilot_shivani,
4,long,target,t2,4,36,0,0,0,0,35,0,35,0,0,3,3,3,,,,,2018_Oct_12_1213,60.2449532443,test_experiment,002,pilot_shivani,
5,long,distractor,t2,K,36,0,0,0,0,35,0,35,0,0,4,4,4,,,,,2018_Oct_12_1213,60.2449532443,test_experiment,002,pilot_shivani,
6,long,distractor,t2,X,36,0,0,0,0,35,0,35,0,0,5,5,5,,,,,2018_Oct_12_1213,60.2449532443,test_experiment,002,pilot_shivani,
7,long,distractor,t2,C,36,0,0,0,0,35,0,35,0,0,6,6,6,,,,,2018_Oct_12_1213,60.2449532443,test_experiment,002,pilot_shivani,
8,long,distractor,t2,F,36,0,0,0,0,35,0,35,0,0,7,7,7,,,,,2018_Oct_12_1213,60.2449532443,test_experiment,002,pilot_shivani,
9,long,distractor,t2,A,36,0,0,0,0,35,0,35,0,0,8,8,8,,,,,2018_Oct_12_1213,60.2449532443,test_experiment,002,pilot_shivani,
10,long,distractor,t2,V,36,0,0,0,0,35,0,35,0,0,9,9,9,,,,,2018_Oct_12_1213,60.2449532443,test_experiment,002,pilot_shivani,
11,long,distractor,t2,K,36,0,0,0,0,35,0,35,0,0,10,10,10,,,,,2018_Oct_12_1213,60.2449532443,test_experiment,002,pilot_shivani,
12,long,target,t2,7,36,0,0,0,0,35,0,35,0,0,11,11,11,,,,,2018_Oct_12_1213,60.2449532443,test_experiment,002,pilot_shivani,
13,long,distractor,t2,Q,36,0,0,0,0,35,0,35,0,0,12,12,12,,,,,2018_Oct_12_1213,60.2449532443,test_experiment,002,pilot_shivani,
14,long,distractor,t2,G,36,0,0,0,0,35,0,35,0,0,13,13,13,,,,,2018_Oct_12_1213,60.2449532443,test_experiment,002,pilot_shivani,
15,long,distractor,t2,Y,36,0,0,0,0,35,0,35,0,0,14,14,14,,,,,2018_Oct_12_1213,60.2449532443,test_experiment,002,pilot_shivani,
16,long,distractor,t2,E,36,0,0,0,0,35,0,35,0,0,15,15,15,,,,,2018_Oct_12_1213,60.2449532443,test_experiment,002,pilot_shivani,
17,long,distractor,t2,W,36,0,0,0,0,35,0,35,0,0,16,16,16,,,,,2018_Oct_12_1213,60.2449532443,test_experiment,002,pilot_shivani,
18,long,distractor,t2,C,36,0,0,0,0,35,0,35,0,0,17,17,17,,,,,2018_Oct_12_1213,60.2449532443,test_experiment,002,pilot_shivani,
,,,,,,0,0,0,0,35,0,35,0,,,,,4,0.567759494646,3,0.335669283988,2018_Oct_12_1213,60.2449532443,test_experiment,002,pilot_shivani,
1,short,distractor,t2,R,37,0,0,0,0,36,0,36,0,0,0,0,0,,,,,2018_Oct_12_1213,60.2449532443,test_experiment,002,pilot_shivani,
2,short,distractor,t2,Y,37,0,0,0,0,36,0,36,0,0,1,1,1,,,,,2018_Oct_12_1213,60.2449532443,test_experiment,002,pilot_shivani,
3,short,distractor,t2,A,37,0,0,0,0,36,0,36,0,0,2,2,2,,,,,2018_Oct_12_1213,60.2449532443,test_experiment,002,pilot_shivani,
4,short,distractor,t2,K,37,0,0,0,0,36,0,36,0,0,3,3,3,,,,,2018_Oct_12_1213,60.2449532443,test_experiment,002,pilot_shivani,
5,short,distractor,t2,O,37,0,0,0,0,36,0,36,0,0,4,4,4,,,,,2018_Oct_12_1213,60.2449532443,test_experiment,002,pilot_shivani,
6,short,distractor,t2,X,37,0,0,0,0,36,0,36,0,0,5,5,5,,,,,2018_Oct_12_1213,60.2449532443,test_experiment,002,pilot_shivani,
7,short,distractor,t2,W,37,0,0,0,0,36,0,36,0,0,6,6,6,,,,,2018_Oct_12_1213,60.2449532443,test_experiment,002,pilot_shivani,
8,short,distractor,t2,R,37,0,0,0,0,36,0,36,0,0,7,7,7,,,,,2018_Oct_12_1213,60.2449532443,test_experiment,002,pilot_shivani,
9,short,distractor,t2,R,37,0,0,0,0,36,0,36,0,0,8,8,8,,,,,2018_Oct_12_1213,60.2449532443,test_experiment,002,pilot_shivani,
10,short,target,t2,2,37,0,0,0,0,36,0,36,0,0,9,9,9,,,,,2018_Oct_12_1213,60.2449532443,test_experiment,002,pilot_shivani,
11,short,distractor,t2,C,37,0,0,0,0,36,0,36,0,0,10,10,10,,,,,2018_Oct_12_1213,60.2449532443,test_experiment,002,pilot_shivani,
12,short,distractor,t2,A,37,0,0,0,0,36,0,36,0,0,11,11,11,,,,,2018_Oct_12_1213,60.2449532443,test_experiment,002,pilot_shivani,
13,short,distractor,t2,Y,37,0,0,0,0,36,0,36,0,0,12,12,12,,,,,2018_Oct_12_1213,60.2449532443,test_experiment,002,pilot_shivani,
14,short,target,t2,4,37,0,0,0,0,36,0,36,0,0,13,13,13,,,,,2018_Oct_12_1213,60.2449532443,test_experiment,002,pilot_shivani,
15,short,distractor,t2,Y,37,0,0,0,0,36,0,36,0,0,14,14,14,,,,,2018_Oct_12_1213,60.2449532443,test_experiment,002,pilot_shivani,
16,short,distractor,t2,J,37,0,0,0,0,36,0,36,0,0,15,15,15,,,,,2018_Oct_12_1213,60.2449532443,test_experiment,002,pilot_shivani,
17,short,distractor,t2,P,37,0,0,0,0,36,0,36,0,0,16,16,16,,,,,2018_Oct_12_1213,60.2449532443,test_experiment,002,pilot_shivani,
,,,,,,0,0,0,0,36,0,36,0,,,,,2,0.151078805909,7,0.601771448506,2018_Oct_12_1213,60.2449532443,test_experiment,002,pilot_shivani,
1,short,distractor,t1,O,38,0,0,0,0,37,0,37,0,0,0,0,0,,,,,2018_Oct_12_1213,60.2449532443,test_experiment,002,pilot_shivani,
2,short,distractor,t1,E,38,0,0,0,0,37,0,37,0,0,1,1,1,,,,,2018_Oct_12_1213,60.2449532443,test_experiment,002,pilot_shivani,
3,short,distractor,t1,H,38,0,0,0,0,37,0,37,0,0,2,2,2,,,,,2018_Oct_12_1213,60.2449532443,test_experiment,002,pilot_shivani,
4,short,distractor,t1,K,38,0,0,0,0,37,0,37,0,0,3,3,3,,,,,2018_Oct_12_1213,60.2449532443,test_experiment,002,pilot_shivani,
5,short,distractor,t1,N,38,0,0,0,0,37,0,37,0,0,4,4,4,,,,,2018_Oct_12_1213,60.2449532443,test_experiment,002,pilot_shivani,
6,short,distractor,t1,S,38,0,0,0,0,37,0,37,0,0,5,5,5,,,,,2018_Oct_12_1213,60.2449532443,test_experiment,002,pilot_shivani,
7,short,distractor,t1,Z,38,0,0,0,0,37,0,37,0,0,6,6,6,,,,,2018_Oct_12_1213,60.2449532443,test_experiment,002,pilot_shivani,
8,short,distractor,t1,E,38,0,0,0,0,37,0,37,0,0,7,7,7,,,,,2018_Oct_12_1213,60.2449532443,test_experiment,002,pilot_shivani,
9,short,distractor,t1,E,38,0,0,0,0,37,0,37,0,0,8,8,8,,,,,2018_Oct_12_1213,60.2449532443,test_experiment,002,pilot_shivani,
10,short,distractor,t1,C,38,0,0,0,0,37,0,37,0,0,9,9,9,,,,,2018_Oct_12_1213,60.2449532443,test_experiment,002,pilot_shivani,
11,short,target,t1,1,38,0,0,0,0,37,0,37,0,0,10,10,10,,,,,2018_Oct_12_1213,60.2449532443,test_experiment,002,pilot_shivani,
12,short,distractor,t1,S,38,0,0,0,0,37,0,37,0,0,11,11,11,,,,,2018_Oct_12_1213,60.2449532443,test_experiment,002,pilot_shivani,
13,short,distractor,t1,X,38,0,0,0,0,37,0,37,0,0,12,12,12,,,,,2018_Oct_12_1213,60.2449532443,test_experiment,002,pilot_shivani,
14,short,distractor,t1,K,38,0,0,0,0,37,0,37,0,0,13,13,13,,,,,2018_Oct_12_1213,60.2449532443,test_experiment,002,pilot_shivani,
15,short,mask,t1, ,38,0,0,0,0,37,0,37,0,0,14,14,14,,,,,2018_Oct_12_1213,60.2449532443,test_experiment,002,pilot_shivani,
16,short,distractor,t1,G,38,0,0,0,0,37,0,37,0,0,15,15,15,,,,,2018_Oct_12_1213,60.2449532443,test_experiment,002,pilot_shivani,
,,,,,,0,0,0,0,37,0,37,0,,,,,1,0.584522091202,2,0.317990856129,2018_Oct_12_1213,60.2449532443,test_experiment,002,pilot_shivani,
1,short,distractor,t1,I,39,0,0,0,0,38,0,38,0,0,0,0,0,,,,,2018_Oct_12_1213,60.2449532443,test_experiment,002,pilot_shivani,
2,short,distractor,t1,H,39,0,0,0,0,38,0,38,0,0,1,1,1,,,,,2018_Oct_12_1213,60.2449532443,test_experiment,002,pilot_shivani,
3,short,target,t1,6,39,0,0,0,0,38,0,38,0,0,2,2,2,,,,,2018_Oct_12_1213,60.2449532443,test_experiment,002,pilot_shivani,
4,short,distractor,t1,J,39,0,0,0,0,38,0,38,0,0,3,3,3,,,,,2018_Oct_12_1213,60.2449532443,test_experiment,002,pilot_shivani,
5,short,distractor,t1,B,39,0,0,0,0,38,0,38,0,0,4,4,4,,,,,2018_Oct_12_1213,60.2449532443,test_experiment,002,pilot_shivani,
6,short,distractor,t1,R,39,0,0,0,0,38,0,38,0,0,5,5,5,,,,,2018_Oct_12_1213,60.2449532443,test_experiment,002,pilot_shivani,
7,short,mask,t1, ,39,0,0,0,0,38,0,38,0,0,6,6,6,,,,,2018_Oct_12_1213,60.2449532443,test_experiment,002,pilot_shivani,
8,short,distractor,t1,L,39,0,0,0,0,38,0,38,0,0,7,7,7,,,,,2018_Oct_12_1213,60.2449532443,test_experiment,002,pilot_shivani,
9,short,distractor,t1,O,39,0,0,0,0,38,0,38,0,0,8,8,8,,,,,2018_Oct_12_1213,60.2449532443,test_experiment,002,pilot_shivani,
10,short,distractor,t1,V,39,0,0,0,0,38,0,38,0,0,9,9,9,,,,,2018_Oct_12_1213,60.2449532443,test_experiment,002,pilot_shivani,
11,short,distractor,t1,L,39,0,0,0,0,38,0,38,0,0,10,10,10,,,,,2018_Oct_12_1213,60.2449532443,test_experiment,002,pilot_shivani,
12,short,distractor,t1,A,39,0,0,0,0,38,0,38,0,0,11,11,11,,,,,2018_Oct_12_1213,60.2449532443,test_experiment,002,pilot_shivani,
13,short,distractor,t1,X,39,0,0,0,0,38,0,38,0,0,12,12,12,,,,,2018_Oct_12_1213,60.2449532443,test_experiment,002,pilot_shivani,
14,short,distractor,t1,W,39,0,0,0,0,38,0,38,0,0,13,13,13,,,,,2018_Oct_12_1213,60.2449532443,test_experiment,002,pilot_shivani,
15,short,distractor,t1,V,39,0,0,0,0,38,0,38,0,0,14,14,14,,,,,2018_Oct_12_1213,60.2449532443,test_experiment,002,pilot_shivani,
,,,,,,0,0,0,0,38,0,38,0,,,,,6,0.518034484237,1,0.417374472832,2018_Oct_12_1213,60.2449532443,test_experiment,002,pilot_shivani,
1,short,distractor,t1,J,40,0,0,0,0,39,0,39,0,0,0,0,0,,,,,2018_Oct_12_1213,60.2449532443,test_experiment,002,pilot_shivani,
2,short,distractor,t1,C,40,0,0,0,0,39,0,39,0,0,1,1,1,,,,,2018_Oct_12_1213,60.2449532443,test_experiment,002,pilot_shivani,
3,short,distractor,t1,N,40,0,0,0,0,39,0,39,0,0,2,2,2,,,,,2018_Oct_12_1213,60.2449532443,test_experiment,002,pilot_shivani,
4,short,distractor,t1,K,40,0,0,0,0,39,0,39,0,0,3,3,3,,,,,2018_Oct_12_1213,60.2449532443,test_experiment,002,pilot_shivani,
5,short,target,t1,6,40,0,0,0,0,39,0,39,0,0,4,4,4,,,,,2018_Oct_12_1213,60.2449532443,test_experiment,002,pilot_shivani,
6,short,distractor,t1,H,40,0,0,0,0,39,0,39,0,0,5,5,5,,,,,2018_Oct_12_1213,60.2449532443,test_experiment,002,pilot_shivani,
7,short,distractor,t1,V,40,0,0,0,0,39,0,39,0,0,6,6,6,,,,,2018_Oct_12_1213,60.2449532443,test_experiment,002,pilot_shivani,
8,short,distractor,t1,Q,40,0,0,0,0,39,0,39,0,0,7,7,7,,,,,2018_Oct_12_1213,60.2449532443,test_experiment,002,pilot_shivani,
9,short,mask,t1, ,40,0,0,0,0,39,0,39,0,0,8,8,8,,,,,2018_Oct_12_1213,60.2449532443,test_experiment,002,pilot_shivani,
10,short,distractor,t1,H,40,0,0,0,0,39,0,39,0,0,9,9,9,,,,,2018_Oct_12_1213,60.2449532443,test_experiment,002,pilot_shivani,
11,short,distractor,t1,V,40,0,0,0,0,39,0,39,0,0,10,10,10,,,,,2018_Oct_12_1213,60.2449532443,test_experiment,002,pilot_shivani,
12,short,distractor,t1,N,40,0,0,0,0,39,0,39,0,0,11,11,11,,,,,2018_Oct_12_1213,60.2449532443,test_experiment,002,pilot_shivani,
13,short,distractor,t1,M,40,0,0,0,0,39,0,39,0,0,12,12,12,,,,,2018_Oct_12_1213,60.2449532443,test_experiment,002,pilot_shivani,
14,short,distractor,t1,N,40,0,0,0,0,39,0,39,0,0,13,13,13,,,,,2018_Oct_12_1213,60.2449532443,test_experiment,002,pilot_shivani,
15,short,distractor,t1,H,40,0,0,0,0,39,0,39,0,0,14,14,14,,,,,2018_Oct_12_1213,60.2449532443,test_experiment,002,pilot_shivani,
16,short,distractor,t1,Z,40,0,0,0,0,39,0,39,0,0,15,15,15,,,,,2018_Oct_12_1213,60.2449532443,test_experiment,002,pilot_shivani,
17,short,distractor,t1,P,40,0,0,0,0,39,0,39,0,0,16,16,16,,,,,2018_Oct_12_1213,60.2449532443,test_experiment,002,pilot_shivani,
,,,,,,0,0,0,0,39,0,39,0,,,,,6,1.03414235765,5,0.351076762774,2018_Oct_12_1213,60.2449532443,test_experiment,002,pilot_shivani,
1,short,distractor,t1,C,41,0,0,0,0,40,0,40,0,0,0,0,0,,,,,2018_Oct_12_1213,60.2449532443,test_experiment,002,pilot_shivani,
2,short,target,t1,6,41,0,0,0,0,40,0,40,0,0,1,1,1,,,,,2018_Oct_12_1213,60.2449532443,test_experiment,002,pilot_shivani,
3,short,distractor,t1,F,41,0,0,0,0,40,0,40,0,0,2,2,2,,,,,2018_Oct_12_1213,60.2449532443,test_experiment,002,pilot_shivani,
4,short,distractor,t1,L,41,0,0,0,0,40,0,40,0,0,3,3,3,,,,,2018_Oct_12_1213,60.2449532443,test_experiment,002,pilot_shivani,
5,short,distractor,t1,I,41,0,0,0,0,40,0,40,0,0,4,4,4,,,,,2018_Oct_12_1213,60.2449532443,test_experiment,002,pilot_shivani,
6,short,mask,t1, ,41,0,0,0,0,40,0,40,0,0,5,5,5,,,,,2018_Oct_12_1213,60.2449532443,test_experiment,002,pilot_shivani,
7,short,distractor,t1,M,41,0,0,0,0,40,0,40,0,0,6,6,6,,,,,2018_Oct_12_1213,60.2449532443,test_experiment,002,pilot_shivani,
8,short,distractor,t1,L,41,0,0,0,0,40,0,40,0,0,7,7,7,,,,,2018_Oct_12_1213,60.2449532443,test_experiment,002,pilot_shivani,
9,short,distractor,t1,E,41,0,0,0,0,40,0,40,0,0,8,8,8,,,,,2018_Oct_12_1213,60.2449532443,test_experiment,002,pilot_shivani,
10,short,distractor,t1,E,41,0,0,0,0,40,0,40,0,0,9,9,9,,,,,2018_Oct_12_1213,60.2449532443,test_experiment,002,pilot_shivani,
11,short,distractor,t1,F,41,0,0,0,0,40,0,40,0,0,10,10,10,,,,,2018_Oct_12_1213,60.2449532443,test_experiment,002,pilot_shivani,
12,short,distractor,t1,A,41,0,0,0,0,40,0,40,0,0,11,11,11,,,,,2018_Oct_12_1213,60.2449532443,test_experiment,002,pilot_shivani,
13,short,distractor,t1,R,41,0,0,0,0,40,0,40,0,0,12,12,12,,,,,2018_Oct_12_1213,60.2449532443,test_experiment,002,pilot_shivani,
14,short,distractor,t1,D,41,0,0,0,0,40,0,40,0,0,13,13,13,,,,,2018_Oct_12_1213,60.2449532443,test_experiment,002,pilot_shivani,
15,short,distractor,t1,E,41,0,0,0,0,40,0,40,0,0,14,14,14,,,,,2018_Oct_12_1213,60.2449532443,test_experiment,002,pilot_shivani,
,,,,,,0,0,0,0,40,0,40,0,,,,,6,0.684738008655,6,0.535067202989,2018_Oct_12_1213,60.2449532443,test_experiment,002,pilot_shivani,
1,short,distractor,t1,G,42,0,0,0,0,41,0,41,0,0,0,0,0,,,,,2018_Oct_12_1213,60.2449532443,test_experiment,002,pilot_shivani,
2,short,distractor,t1,K,42,0,0,0,0,41,0,41,0,0,1,1,1,,,,,2018_Oct_12_1213,60.2449532443,test_experiment,002,pilot_shivani,
3,short,distractor,t1,W,42,0,0,0,0,41,0,41,0,0,2,2,2,,,,,2018_Oct_12_1213,60.2449532443,test_experiment,002,pilot_shivani,
4,short,distractor,t1,J,42,0,0,0,0,41,0,41,0,0,3,3,3,,,,,2018_Oct_12_1213,60.2449532443,test_experiment,002,pilot_shivani,
5,short,distractor,t1,F,42,0,0,0,0,41,0,41,0,0,4,4,4,,,,,2018_Oct_12_1213,60.2449532443,test_experiment,002,pilot_shivani,
6,short,distractor,t1,A,42,0,0,0,0,41,0,41,0,0,5,5,5,,,,,2018_Oct_12_1213,60.2449532443,test_experiment,002,pilot_shivani,
7,short,distractor,t1,B,42,0,0,0,0,41,0,41,0,0,6,6,6,,,,,2018_Oct_12_1213,60.2449532443,test_experiment,002,pilot_shivani,
8,short,distractor,t1,E,42,0,0,0,0,41,0,41,0,0,7,7,7,,,,,2018_Oct_12_1213,60.2449532443,test_experiment,002,pilot_shivani,
9,short,distractor,t1,Z,42,0,0,0,0,41,0,41,0,0,8,8,8,,,,,2018_Oct_12_1213,60.2449532443,test_experiment,002,pilot_shivani,
10,short,distractor,t1,K,42,0,0,0,0,41,0,41,0,0,9,9,9,,,,,2018_Oct_12_1213,60.2449532443,test_experiment,002,pilot_shivani,
11,short,distractor,t1,C,42,0,0,0,0,41,0,41,0,0,10,10,10,,,,,2018_Oct_12_1213,60.2449532443,test_experiment,002,pilot_shivani,
12,short,target,t1,8,42,0,0,0,0,41,0,41,0,0,11,11,11,,,,,2018_Oct_12_1213,60.2449532443,test_experiment,002,pilot_shivani,
13,short,distractor,t1,G,42,0,0,0,0,41,0,41,0,0,12,12,12,,,,,2018_Oct_12_1213,60.2449532443,test_experiment,002,pilot_shivani,
14,short,distractor,t1,A,42,0,0,0,0,41,0,41,0,0,13,13,13,,,,,2018_Oct_12_1213,60.2449532443,test_experiment,002,pilot_shivani,
15,short,distractor,t1,W,42,0,0,0,0,41,0,41,0,0,14,14,14,,,,,2018_Oct_12_1213,60.2449532443,test_experiment,002,pilot_shivani,
16,short,mask,t1, ,42,0,0,0,0,41,0,41,0,0,15,15,15,,,,,2018_Oct_12_1213,60.2449532443,test_experiment,002,pilot_shivani,
17,short,distractor,t1,Y,42,0,0,0,0,41,0,41,0,0,16,16,16,,,,,2018_Oct_12_1213,60.2449532443,test_experiment,002,pilot_shivani,
,,,,,,0,0,0,0,41,0,41,0,,,,,6,1.01783647481,8,0.685059510986,2018_Oct_12_1213,60.2449532443,test_experiment,002,pilot_shivani,
1,long,distractor,t2,J,43,0,0,0,0,42,0,42,0,0,0,0,0,,,,,2018_Oct_12_1213,60.2449532443,test_experiment,002,pilot_shivani,
2,long,target,t2,7,43,0,0,0,0,42,0,42,0,0,1,1,1,,,,,2018_Oct_12_1213,60.2449532443,test_experiment,002,pilot_shivani,
3,long,distractor,t2,R,43,0,0,0,0,42,0,42,0,0,2,2,2,,,,,2018_Oct_12_1213,60.2449532443,test_experiment,002,pilot_shivani,
4,long,distractor,t2,K,43,0,0,0,0,42,0,42,0,0,3,3,3,,,,,2018_Oct_12_1213,60.2449532443,test_experiment,002,pilot_shivani,
5,long,distractor,t2,Q,43,0,0,0,0,42,0,42,0,0,4,4,4,,,,,2018_Oct_12_1213,60.2449532443,test_experiment,002,pilot_shivani,
6,long,distractor,t2,U,43,0,0,0,0,42,0,42,0,0,5,5,5,,,,,2018_Oct_12_1213,60.2449532443,test_experiment,002,pilot_shivani,
7,long,distractor,t2,A,43,0,0,0,0,42,0,42,0,0,6,6,6,,,,,2018_Oct_12_1213,60.2449532443,test_experiment,002,pilot_shivani,
8,long,distractor,t2,G,43,0,0,0,0,42,0,42,0,0,7,7,7,,,,,2018_Oct_12_1213,60.2449532443,test_experiment,002,pilot_shivani,
9,long,distractor,t2,M,43,0,0,0,0,42,0,42,0,0,8,8,8,,,,,2018_Oct_12_1213,60.2449532443,test_experiment,002,pilot_shivani,
10,long,target,t2,4,43,0,0,0,0,42,0,42,0,0,9,9,9,,,,,2018_Oct_12_1213,60.2449532443,test_experiment,002,pilot_shivani,
11,long,distractor,t2,T,43,0,0,0,0,42,0,42,0,0,10,10,10,,,,,2018_Oct_12_1213,60.2449532443,test_experiment,002,pilot_shivani,
12,long,distractor,t2,X,43,0,0,0,0,42,0,42,0,0,11,11,11,,,,,2018_Oct_12_1213,60.2449532443,test_experiment,002,pilot_shivani,
13,long,distractor,t2,A,43,0,0,0,0,42,0,42,0,0,12,12,12,,,,,2018_Oct_12_1213,60.2449532443,test_experiment,002,pilot_shivani,
14,long,distractor,t2,M,43,0,0,0,0,42,0,42,0,0,13,13,13,,,,,2018_Oct_12_1213,60.2449532443,test_experiment,002,pilot_shivani,
15,long,distractor,t2,L,43,0,0,0,0,42,0,42,0,0,14,14,14,,,,,2018_Oct_12_1213,60.2449532443,test_experiment,002,pilot_shivani,
,,,,,,0,0,0,0,42,0,42,0,,,,,1,0.917982022278,4,0.501534498064,2018_Oct_12_1213,60.2449532443,test_experiment,002,pilot_shivani,
1,long,distractor,t2,A,44,0,0,0,0,43,0,43,0,0,0,0,0,,,,,2018_Oct_12_1213,60.2449532443,test_experiment,002,pilot_shivani,
2,long,distractor,t2,M,44,0,0,0,0,43,0,43,0,0,1,1,1,,,,,2018_Oct_12_1213,60.2449532443,test_experiment,002,pilot_shivani,
3,long,distractor,t2,P,44,0,0,0,0,43,0,43,0,0,2,2,2,,,,,2018_Oct_12_1213,60.2449532443,test_experiment,002,pilot_shivani,
4,long,distractor,t2,B,44,0,0,0,0,43,0,43,0,0,3,3,3,,,,,2018_Oct_12_1213,60.2449532443,test_experiment,002,pilot_shivani,
5,long,distractor,t2,O,44,0,0,0,0,43,0,43,0,0,4,4,4,,,,,2018_Oct_12_1213,60.2449532443,test_experiment,002,pilot_shivani,
6,long,distractor,t2,E,44,0,0,0,0,43,0,43,0,0,5,5,5,,,,,2018_Oct_12_1213,60.2449532443,test_experiment,002,pilot_shivani,
7,long,target,t2,7,44,0,0,0,0,43,0,43,0,0,6,6,6,,,,,2018_Oct_12_1213,60.2449532443,test_experiment,002,pilot_shivani,
8,long,distractor,t2,Z,44,0,0,0,0,43,0,43,0,0,7,7,7,,,,,2018_Oct_12_1213,60.2449532443,test_experiment,002,pilot_shivani,
9,long,distractor,t2,J,44,0,0,0,0,43,0,43,0,0,8,8,8,,,,,2018_Oct_12_1213,60.2449532443,test_experiment,002,pilot_shivani,
10,long,distractor,t2,F,44,0,0,0,0,43,0,43,0,0,9,9,9,,,,,2018_Oct_12_1213,60.2449532443,test_experiment,002,pilot_shivani,
11,long,distractor,t2,Z,44,0,0,0,0,43,0,43,0,0,10,10,10,,,,,2018_Oct_12_1213,60.2449532443,test_experiment,002,pilot_shivani,
12,long,distractor,t2,E,44,0,0,0,0,43,0,43,0,0,11,11,11,,,,,2018_Oct_12_1213,60.2449532443,test_experiment,002,pilot_shivani,
13,long,distractor,t2,V,44,0,0,0,0,43,0,43,0,0,12,12,12,,,,,2018_Oct_12_1213,60.2449532443,test_experiment,002,pilot_shivani,
14,long,distractor,t2,H,44,0,0,0,0,43,0,43,0,0,13,13,13,,,,,2018_Oct_12_1213,60.2449532443,test_experiment,002,pilot_shivani,
15,long,target,t2,3,44,0,0,0,0,43,0,43,0,0,14,14,14,,,,,2018_Oct_12_1213,60.2449532443,test_experiment,002,pilot_shivani,
16,long,distractor,t2,S,44,0,0,0,0,43,0,43,0,0,15,15,15,,,,,2018_Oct_12_1213,60.2449532443,test_experiment,002,pilot_shivani,
17,long,distractor,t2,F,44,0,0,0,0,43,0,43,0,0,16,16,16,,,,,2018_Oct_12_1213,60.2449532443,test_experiment,002,pilot_shivani,
18,long,distractor,t2,N,44,0,0,0,0,43,0,43,0,0,17,17,17,,,,,2018_Oct_12_1213,60.2449532443,test_experiment,002,pilot_shivani,
,,,,,,0,0,0,0,43,0,43,0,,,,,2,0.617602889775,3,0.352206828771,2018_Oct_12_1213,60.2449532443,test_experiment,002,pilot_shivani,
1,long,distractor,t2,U,45,0,0,0,0,44,0,44,0,0,0,0,0,,,,,2018_Oct_12_1213,60.2449532443,test_experiment,002,pilot_shivani,
2,long,distractor,t2,V,45,0,0,0,0,44,0,44,0,0,1,1,1,,,,,2018_Oct_12_1213,60.2449532443,test_experiment,002,pilot_shivani,
3,long,distractor,t2,S,45,0,0,0,0,44,0,44,0,0,2,2,2,,,,,2018_Oct_12_1213,60.2449532443,test_experiment,002,pilot_shivani,
4,long,target,t2,4,45,0,0,0,0,44,0,44,0,0,3,3,3,,,,,2018_Oct_12_1213,60.2449532443,test_experiment,002,pilot_shivani,
5,long,distractor,t2,W,45,0,0,0,0,44,0,44,0,0,4,4,4,,,,,2018_Oct_12_1213,60.2449532443,test_experiment,002,pilot_shivani,
6,long,distractor,t2,V,45,0,0,0,0,44,0,44,0,0,5,5,5,,,,,2018_Oct_12_1213,60.2449532443,test_experiment,002,pilot_shivani,
7,long,distractor,t2,I,45,0,0,0,0,44,0,44,0,0,6,6,6,,,,,2018_Oct_12_1213,60.2449532443,test_experiment,002,pilot_shivani,
8,long,distractor,t2,U,45,0,0,0,0,44,0,44,0,0,7,7,7,,,,,2018_Oct_12_1213,60.2449532443,test_experiment,002,pilot_shivani,
9,long,distractor,t2,X,45,0,0,0,0,44,0,44,0,0,8,8,8,,,,,2018_Oct_12_1213,60.2449532443,test_experiment,002,pilot_shivani,
10,long,distractor,t2,R,45,0,0,0,0,44,0,44,0,0,9,9,9,,,,,2018_Oct_12_1213,60.2449532443,test_experiment,002,pilot_shivani,
11,long,distractor,t2,Z,45,0,0,0,0,44,0,44,0,0,10,10,10,,,,,2018_Oct_12_1213,60.2449532443,test_experiment,002,pilot_shivani,
12,long,target,t2,1,45,0,0,0,0,44,0,44,0,0,11,11,11,,,,,2018_Oct_12_1213,60.2449532443,test_experiment,002,pilot_shivani,
13,long,distractor,t2,H,45,0,0,0,0,44,0,44,0,0,12,12,12,,,,,2018_Oct_12_1213,60.2449532443,test_experiment,002,pilot_shivani,
14,long,distractor,t2,O,45,0,0,0,0,44,0,44,0,0,13,13,13,,,,,2018_Oct_12_1213,60.2449532443,test_experiment,002,pilot_shivani,
15,long,distractor,t2,N,45,0,0,0,0,44,0,44,0,0,14,14,14,,,,,2018_Oct_12_1213,60.2449532443,test_experiment,002,pilot_shivani,
16,long,distractor,t2,F,45,0,0,0,0,44,0,44,0,0,15,15,15,,,,,2018_Oct_12_1213,60.2449532443,test_experiment,002,pilot_shivani,
17,long,distractor,t2,P,45,0,0,0,0,44,0,44,0,0,16,16,16,,,,,2018_Oct_12_1213,60.2449532443,test_experiment,002,pilot_shivani,
18,long,distractor,t2,B,45,0,0,0,0,44,0,44,0,0,17,17,17,,,,,2018_Oct_12_1213,60.2449532443,test_experiment,002,pilot_shivani,
,,,,,,0,0,0,0,44,0,44,0,,,,,4,0.534799184185,1,0.685532450094,2018_Oct_12_1213,60.2449532443,test_experiment,002,pilot_shivani,
1,long,distractor,t2,Q,46,0,0,0,0,45,0,45,0,0,0,0,0,,,,,2018_Oct_12_1213,60.2449532443,test_experiment,002,pilot_shivani,
2,long,distractor,t2,H,46,0,0,0,0,45,0,45,0,0,1,1,1,,,,,2018_Oct_12_1213,60.2449532443,test_experiment,002,pilot_shivani,
3,long,distractor,t2,Q,46,0,0,0,0,45,0,45,0,0,2,2,2,,,,,2018_Oct_12_1213,60.2449532443,test_experiment,002,pilot_shivani,
4,long,target,t2,7,46,0,0,0,0,45,0,45,0,0,3,3,3,,,,,2018_Oct_12_1213,60.2449532443,test_experiment,002,pilot_shivani,
5,long,distractor,t2,O,46,0,0,0,0,45,0,45,0,0,4,4,4,,,,,2018_Oct_12_1213,60.2449532443,test_experiment,002,pilot_shivani,
6,long,distractor,t2,B,46,0,0,0,0,45,0,45,0,0,5,5,5,,,,,2018_Oct_12_1213,60.2449532443,test_experiment,002,pilot_shivani,
7,long,distractor,t2,O,46,0,0,0,0,45,0,45,0,0,6,6,6,,,,,2018_Oct_12_1213,60.2449532443,test_experiment,002,pilot_shivani,
8,long,distractor,t2,F,46,0,0,0,0,45,0,45,0,0,7,7,7,,,,,2018_Oct_12_1213,60.2449532443,test_experiment,002,pilot_shivani,
9,long,distractor,t2,Z,46,0,0,0,0,45,0,45,0,0,8,8,8,,,,,2018_Oct_12_1213,60.2449532443,test_experiment,002,pilot_shivani,
10,long,distractor,t2,U,46,0,0,0,0,45,0,45,0,0,9,9,9,,,,,2018_Oct_12_1213,60.2449532443,test_experiment,002,pilot_shivani,
11,long,distractor,t2,C,46,0,0,0,0,45,0,45,0,0,10,10,10,,,,,2018_Oct_12_1213,60.2449532443,test_experiment,002,pilot_shivani,
12,long,target,t2,7,46,0,0,0,0,45,0,45,0,0,11,11,11,,,,,2018_Oct_12_1213,60.2449532443,test_experiment,002,pilot_shivani,
