trial,sep_dur,cond,Tx,stimulus,block,block.thisRepN,block.thisTrialN,block.thisN,block.thisIndex,trials.thisRepN,trials.thisTrialN,trials.thisN,trials.thisIndex,stim.thisRepN,stim.thisTrialN,stim.thisN,stim.thisIndex,usr_input_t1.keys,usr_input_t1.rt,usr_input_t2.keys,usr_input_t2.rt,date,frameRate,expName,session,participant,
1,long,distractor,t2,O,1,0,0,0,0,0,0,0,0,0,0,0,0,,,,,2018_Oct_03_1105,59.9922488866,test_experiment,001,1,
2,long,distractor,t2,H,1,0,0,0,0,0,0,0,0,0,1,1,1,,,,,2018_Oct_03_1105,59.9922488866,test_experiment,001,1,
3,long,distractor,t2,F,1,0,0,0,0,0,0,0,0,0,2,2,2,,,,,2018_Oct_03_1105,59.9922488866,test_experiment,001,1,
4,long,distractor,t2,E,1,0,0,0,0,0,0,0,0,0,3,3,3,,,,,2018_Oct_03_1105,59.9922488866,test_experiment,001,1,
5,long,distractor,t2,R,1,0,0,0,0,0,0,0,0,0,4,4,4,,,,,2018_Oct_03_1105,59.9922488866,test_experiment,001,1,
6,long,target,t2,7,1,0,0,0,0,0,0,0,0,0,5,5,5,,,,,2018_Oct_03_1105,59.9922488866,test_experiment,001,1,
7,long,distractor,t2,I,1,0,0,0,0,0,0,0,0,0,6,6,6,,,,,2018_Oct_03_1105,59.9922488866,test_experiment,001,1,
8,long,distractor,t2,P,1,0,0,0,0,0,0,0,0,0,7,7,7,,,,,2018_Oct_03_1105,59.9922488866,test_experiment,001,1,
9,long,distractor,t2,V,1,0,0,0,0,0,0,0,0,0,8,8,8,,,,,2018_Oct_03_1105,59.9922488866,test_experiment,001,1,
10,long,distractor,t2,A,1,0,0,0,0,0,0,0,0,0,9,9,9,,,,,2018_Oct_03_1105,59.9922488866,test_experiment,001,1,
11,long,distractor,t2,W,1,0,0,0,0,0,0,0,0,0,10,10,10,,,,,2018_Oct_03_1105,59.9922488866,test_experiment,001,1,
12,long,distractor,t2,N,1,0,0,0,0,0,0,0,0,0,11,11,11,,,,,2018_Oct_03_1105,59.9922488866,test_experiment,001,1,
13,long,distractor,t2,A,1,0,0,0,0,0,0,0,0,0,12,12,12,,,,,2018_Oct_03_1105,59.9922488866,test_experiment,001,1,
14,long,target,t2,6,1,0,0,0,0,0,0,0,0,0,13,13,13,,,,,2018_Oct_03_1105,59.9922488866,test_experiment,001,1,
15,long,distractor,t2,D,1,0,0,0,0,0,0,0,0,0,14,14,14,,,,,2018_Oct_03_1105,59.9922488866,test_experiment,001,1,
,,,,,,0,0,0,0,0,0,0,0,,,,,6,1.10076878144,5,0.151534017365,2018_Oct_03_1105,59.9922488866,test_experiment,001,1,
1,short,distractor,t2,Z,2,0,0,0,0,1,0,1,0,0,0,0,0,,,,,2018_Oct_03_1105,59.9922488866,test_experiment,001,1,
2,short,distractor,t2,H,2,0,0,0,0,1,0,1,0,0,1,1,1,,,,,2018_Oct_03_1105,59.9922488866,test_experiment,001,1,
3,short,distractor,t2,H,2,0,0,0,0,1,0,1,0,0,2,2,2,,,,,2018_Oct_03_1105,59.9922488866,test_experiment,001,1,
4,short,distractor,t2,O,2,0,0,0,0,1,0,1,0,0,3,3,3,,,,,2018_Oct_03_1105,59.9922488866,test_experiment,001,1,
5,short,distractor,t2,D,2,0,0,0,0,1,0,1,0,0,4,4,4,,,,,2018_Oct_03_1105,59.9922488866,test_experiment,001,1,
6,short,distractor,t2,V,2,0,0,0,0,1,0,1,0,0,5,5,5,,,,,2018_Oct_03_1105,59.9922488866,test_experiment,001,1,
7,short,distractor,t2,M,2,0,0,0,0,1,0,1,0,0,6,6,6,,,,,2018_Oct_03_1105,59.9922488866,test_experiment,001,1,
8,short,target,t2,6,2,0,0,0,0,1,0,1,0,0,7,7,7,,,,,2018_Oct_03_1105,59.9922488866,test_experiment,001,1,
9,short,distractor,t2,S,2,0,0,0,0,1,0,1,0,0,8,8,8,,,,,2018_Oct_03_1105,59.9922488866,test_experiment,001,1,
10,short,distractor,t2,H,2,0,0,0,0,1,0,1,0,0,9,9,9,,,,,2018_Oct_03_1105,59.9922488866,test_experiment,001,1,
11,short,distractor,t2,Z,2,0,0,0,0,1,0,1,0,0,10,10,10,,,,,2018_Oct_03_1105,59.9922488866,test_experiment,001,1,
12,short,target,t2,1,2,0,0,0,0,1,0,1,0,0,11,11,11,,,,,2018_Oct_03_1105,59.9922488866,test_experiment,001,1,
13,short,distractor,t2,C,2,0,0,0,0,1,0,1,0,0,12,12,12,,,,,2018_Oct_03_1105,59.9922488866,test_experiment,001,1,
14,short,distractor,t2,B,2,0,0,0,0,1,0,1,0,0,13,13,13,,,,,2018_Oct_03_1105,59.9922488866,test_experiment,001,1,
15,short,distractor,t2,F,2,0,0,0,0,1,0,1,0,0,14,14,14,,,,,2018_Oct_03_1105,59.9922488866,test_experiment,001,1,
16,short,distractor,t2,R,2,0,0,0,0,1,0,1,0,0,15,15,15,,,,,2018_Oct_03_1105,59.9922488866,test_experiment,001,1,
17,short,distractor,t2,L,2,0,0,0,0,1,0,1,0,0,16,16,16,,,,,2018_Oct_03_1105,59.9922488866,test_experiment,001,1,
18,short,distractor,t2,Z,2,0,0,0,0,1,0,1,0,0,17,17,17,,,,,2018_Oct_03_1105,59.9922488866,test_experiment,001,1,
,,,,,,0,0,0,0,1,0,1,0,,,,,6,0.300735489422,5,0.151128383441,2018_Oct_03_1105,59.9922488866,test_experiment,001,1,
1,long,distractor,t2,B,3,0,0,0,0,2,0,2,0,0,0,0,0,,,,,2018_Oct_03_1105,59.9922488866,test_experiment,001,1,
2,long,distractor,t2,G,3,0,0,0,0,2,0,2,0,0,1,1,1,,,,,2018_Oct_03_1105,59.9922488866,test_experiment,001,1,
3,long,distractor,t2,T,3,0,0,0,0,2,0,2,0,0,2,2,2,,,,,2018_Oct_03_1105,59.9922488866,test_experiment,001,1,
4,long,distractor,t2,Q,3,0,0,0,0,2,0,2,0,0,3,3,3,,,,,2018_Oct_03_1105,59.9922488866,test_experiment,001,1,
5,long,distractor,t2,B,3,0,0,0,0,2,0,2,0,0,4,4,4,,,,,2018_Oct_03_1105,59.9922488866,test_experiment,001,1,
6,long,distractor,t2,L,3,0,0,0,0,2,0,2,0,0,5,5,5,,,,,2018_Oct_03_1105,59.9922488866,test_experiment,001,1,
7,long,target,t2,2,3,0,0,0,0,2,0,2,0,0,6,6,6,,,,,2018_Oct_03_1105,59.9922488866,test_experiment,001,1,
8,long,distractor,t2,X,3,0,0,0,0,2,0,2,0,0,7,7,7,,,,,2018_Oct_03_1105,59.9922488866,test_experiment,001,1,
9,long,distractor,t2,V,3,0,0,0,0,2,0,2,0,0,8,8,8,,,,,2018_Oct_03_1105,59.9922488866,test_experiment,001,1,
10,long,distractor,t2,A,3,0,0,0,0,2,0,2,0,0,9,9,9,,,,,2018_Oct_03_1105,59.9922488866,test_experiment,001,1,
11,long,distractor,t2,Q,3,0,0,0,0,2,0,2,0,0,10,10,10,,,,,2018_Oct_03_1105,59.9922488866,test_experiment,001,1,
12,long,distractor,t2,G,3,0,0,0,0,2,0,2,0,0,11,11,11,,,,,2018_Oct_03_1105,59.9922488866,test_experiment,001,1,
13,long,distractor,t2,O,3,0,0,0,0,2,0,2,0,0,12,12,12,,,,,2018_Oct_03_1105,59.9922488866,test_experiment,001,1,
14,long,distractor,t2,O,3,0,0,0,0,2,0,2,0,0,13,13,13,,,,,2018_Oct_03_1105,59.9922488866,test_experiment,001,1,
15,long,target,t2,2,3,0,0,0,0,2,0,2,0,0,14,14,14,,,,,2018_Oct_03_1105,59.9922488866,test_experiment,001,1,
16,long,distractor,t2,M,3,0,0,0,0,2,0,2,0,0,15,15,15,,,,,2018_Oct_03_1105,59.9922488866,test_experiment,001,1,
17,long,distractor,t2,Q,3,0,0,0,0,2,0,2,0,0,16,16,16,,,,,2018_Oct_03_1105,59.9922488866,test_experiment,001,1,
,,,,,,0,0,0,0,2,0,2,0,,,,,6,0.867670795924,5,0.135278312955,2018_Oct_03_1105,59.9922488866,test_experiment,001,1,
1,short,target,t1,1,4,0,0,0,0,3,0,3,0,0,0,0,0,,,,,2018_Oct_03_1105,59.9922488866,test_experiment,001,1,
2,short,distractor,t1,J,4,0,0,0,0,3,0,3,0,0,1,1,1,,,,,2018_Oct_03_1105,59.9922488866,test_experiment,001,1,
3,short,distractor,t1,W,4,0,0,0,0,3,0,3,0,0,2,2,2,,,,,2018_Oct_03_1105,59.9922488866,test_experiment,001,1,
4,short,distractor,t1,Z,4,0,0,0,0,3,0,3,0,0,3,3,3,,,,,2018_Oct_03_1105,59.9922488866,test_experiment,001,1,
5,short,mask,t1, ,4,0,0,0,0,3,0,3,0,0,4,4,4,,,,,2018_Oct_03_1105,59.9922488866,test_experiment,001,1,
6,short,distractor,t1,S,4,0,0,0,0,3,0,3,0,0,5,5,5,,,,,2018_Oct_03_1105,59.9922488866,test_experiment,001,1,
7,short,distractor,t1,E,4,0,0,0,0,3,0,3,0,0,6,6,6,,,,,2018_Oct_03_1105,59.9922488866,test_experiment,001,1,
8,short,distractor,t1,G,4,0,0,0,0,3,0,3,0,0,7,7,7,,,,,2018_Oct_03_1105,59.9922488866,test_experiment,001,1,
9,short,distractor,t1,Y,4,0,0,0,0,3,0,3,0,0,8,8,8,,,,,2018_Oct_03_1105,59.9922488866,test_experiment,001,1,
10,short,distractor,t1,H,4,0,0,0,0,3,0,3,0,0,9,9,9,,,,,2018_Oct_03_1105,59.9922488866,test_experiment,001,1,
11,short,distractor,t1,J,4,0,0,0,0,3,0,3,0,0,10,10,10,,,,,2018_Oct_03_1105,59.9922488866,test_experiment,001,1,
12,short,distractor,t1,L,4,0,0,0,0,3,0,3,0,0,11,11,11,,,,,2018_Oct_03_1105,59.9922488866,test_experiment,001,1,
13,short,distractor,t1,Y,4,0,0,0,0,3,0,3,0,0,12,12,12,,,,,2018_Oct_03_1105,59.9922488866,test_experiment,001,1,
14,short,distractor,t1,K,4,0,0,0,0,3,0,3,0,0,13,13,13,,,,,2018_Oct_03_1105,59.9922488866,test_experiment,001,1,
15,short,distractor,t1,N,4,0,0,0,0,3,0,3,0,0,14,14,14,,,,,2018_Oct_03_1105,59.9922488866,test_experiment,001,1,
16,short,distractor,t1,H,4,0,0,0,0,3,0,3,0,0,15,15,15,,,,,2018_Oct_03_1105,59.9922488866,test_experiment,001,1,
17,short,distractor,t1,S,4,0,0,0,0,3,0,3,0,0,16,16,16,,,,,2018_Oct_03_1105,59.9922488866,test_experiment,001,1,
,,,,,,0,0,0,0,3,0,3,0,,,,,6,0.400899726083,5,0.185114196473,2018_Oct_03_1105,59.9922488866,test_experiment,001,1,
1,long,distractor,t2,P,5,0,0,0,0,4,0,4,0,0,0,0,0,,,,,2018_Oct_03_1105,59.9922488866,test_experiment,001,1,
2,long,target,t2,1,5,0,0,0,0,4,0,4,0,0,1,1,1,,,,,2018_Oct_03_1105,59.9922488866,test_experiment,001,1,
3,long,distractor,t2,E,5,0,0,0,0,4,0,4,0,0,2,2,2,,,,,2018_Oct_03_1105,59.9922488866,test_experiment,001,1,
4,long,distractor,t2,H,5,0,0,0,0,4,0,4,0,0,3,3,3,,,,,2018_Oct_03_1105,59.9922488866,test_experiment,001,1,
5,long,distractor,t2,R,5,0,0,0,0,4,0,4,0,0,4,4,4,,,,,2018_Oct_03_1105,59.9922488866,test_experiment,001,1,
6,long,distractor,t2,X,5,0,0,0,0,4,0,4,0,0,5,5,5,,,,,2018_Oct_03_1105,59.9922488866,test_experiment,001,1,
7,long,distractor,t2,Y,5,0,0,0,0,4,0,4,0,0,6,6,6,,,,,2018_Oct_03_1105,59.9922488866,test_experiment,001,1,
8,long,distractor,t2,G,5,0,0,0,0,4,0,4,0,0,7,7,7,,,,,2018_Oct_03_1105,59.9922488866,test_experiment,001,1,
9,long,distractor,t2,O,5,0,0,0,0,4,0,4,0,0,8,8,8,,,,,2018_Oct_03_1105,59.9922488866,test_experiment,001,1,
10,long,target,t2,3,5,0,0,0,0,4,0,4,0,0,9,9,9,,,,,2018_Oct_03_1105,59.9922488866,test_experiment,001,1,
11,long,distractor,t2,F,5,0,0,0,0,4,0,4,0,0,10,10,10,,,,,2018_Oct_03_1105,59.9922488866,test_experiment,001,1,
12,long,distractor,t2,V,5,0,0,0,0,4,0,4,0,0,11,11,11,,,,,2018_Oct_03_1105,59.9922488866,test_experiment,001,1,
13,long,distractor,t2,W,5,0,0,0,0,4,0,4,0,0,12,12,12,,,,,2018_Oct_03_1105,59.9922488866,test_experiment,001,1,
14,long,distractor,t2,G,5,0,0,0,0,4,0,4,0,0,13,13,13,,,,,2018_Oct_03_1105,59.9922488866,test_experiment,001,1,
15,long,distractor,t2,Q,5,0,0,0,0,4,0,4,0,0,14,14,14,,,,,2018_Oct_03_1105,59.9922488866,test_experiment,001,1,
16,long,distractor,t2,X,5,0,0,0,0,4,0,4,0,0,15,15,15,,,,,2018_Oct_03_1105,59.9922488866,test_experiment,001,1,
17,long,distractor,t2,F,5,0,0,0,0,4,0,4,0,0,16,16,16,,,,,2018_Oct_03_1105,59.9922488866,test_experiment,001,1,
,,,,,,0,0,0,0,4,0,4,0,,,,,6,0.25090591576,6,0.234712108082,2018_Oct_03_1105,59.9922488866,test_experiment,001,1,
1,short,distractor,t1,I,6,0,0,0,0,5,0,5,0,0,0,0,0,,,,,2018_Oct_03_1105,59.9922488866,test_experiment,001,1,
2,short,distractor,t1,W,6,0,0,0,0,5,0,5,0,0,1,1,1,,,,,2018_Oct_03_1105,59.9922488866,test_experiment,001,1,
3,short,distractor,t1,M,6,0,0,0,0,5,0,5,0,0,2,2,2,,,,,2018_Oct_03_1105,59.9922488866,test_experiment,001,1,
4,short,distractor,t1,K,6,0,0,0,0,5,0,5,0,0,3,3,3,,,,,2018_Oct_03_1105,59.9922488866,test_experiment,001,1,
5,short,distractor,t1,S,6,0,0,0,0,5,0,5,0,0,4,4,4,,,,,2018_Oct_03_1105,59.9922488866,test_experiment,001,1,
6,short,distractor,t1,B,6,0,0,0,0,5,0,5,0,0,5,5,5,,,,,2018_Oct_03_1105,59.9922488866,test_experiment,001,1,
7,short,target,t1,6,6,0,0,0,0,5,0,5,0,0,6,6,6,,,,,2018_Oct_03_1105,59.9922488866,test_experiment,001,1,
8,short,distractor,t1,K,6,0,0,0,0,5,0,5,0,0,7,7,7,,,,,2018_Oct_03_1105,59.9922488866,test_experiment,001,1,
9,short,distractor,t1,W,6,0,0,0,0,5,0,5,0,0,8,8,8,,,,,2018_Oct_03_1105,59.9922488866,test_experiment,001,1,
10,short,distractor,t1,F,6,0,0,0,0,5,0,5,0,0,9,9,9,,,,,2018_Oct_03_1105,59.9922488866,test_experiment,001,1,
11,short,mask,t1, ,6,0,0,0,0,5,0,5,0,0,10,10,10,,,,,2018_Oct_03_1105,59.9922488866,test_experiment,001,1,
12,short,distractor,t1,P,6,0,0,0,0,5,0,5,0,0,11,11,11,,,,,2018_Oct_03_1105,59.9922488866,test_experiment,001,1,
13,short,distractor,t1,E,6,0,0,0,0,5,0,5,0,0,12,12,12,,,,,2018_Oct_03_1105,59.9922488866,test_experiment,001,1,
14,short,distractor,t1,C,6,0,0,0,0,5,0,5,0,0,13,13,13,,,,,2018_Oct_03_1105,59.9922488866,test_experiment,001,1,
15,short,distractor,t1,S,6,0,0,0,0,5,0,5,0,0,14,14,14,,,,,2018_Oct_03_1105,59.9922488866,test_experiment,001,1,
16,short,distractor,t1,X,6,0,0,0,0,5,0,5,0,0,15,15,15,,,,,2018_Oct_03_1105,59.9922488866,test_experiment,001,1,
17,short,distractor,t1,V,6,0,0,0,0,5,0,5,0,0,16,16,16,,,,,2018_Oct_03_1105,59.9922488866,test_experiment,001,1,
,,,,,,0,0,0,0,5,0,5,0,,,,,6,0.367671697328,6,0.300476184188,2018_Oct_03_1105,59.9922488866,test_experiment,001,1,
1,short,distractor,t2,J,7,0,0,0,0,6,0,6,0,0,0,0,0,,,,,2018_Oct_03_1105,59.9922488866,test_experiment,001,1,
2,short,distractor,t2,A,7,0,0,0,0,6,0,6,0,0,1,1,1,,,,,2018_Oct_03_1105,59.9922488866,test_experiment,001,1,
3,short,distractor,t2,Q,7,0,0,0,0,6,0,6,0,0,2,2,2,,,,,2018_Oct_03_1105,59.9922488866,test_experiment,001,1,
4,short,distractor,t2,K,7,0,0,0,0,6,0,6,0,0,3,3,3,,,,,2018_Oct_03_1105,59.9922488866,test_experiment,001,1,
5,short,distractor,t2,N,7,0,0,0,0,6,0,6,0,0,4,4,4,,,,,2018_Oct_03_1105,59.9922488866,test_experiment,001,1,
6,short,distractor,t2,Y,7,0,0,0,0,6,0,6,0,0,5,5,5,,,,,2018_Oct_03_1105,59.9922488866,test_experiment,001,1,
7,short,distractor,t2,R,7,0,0,0,0,6,0,6,0,0,6,6,6,,,,,2018_Oct_03_1105,59.9922488866,test_experiment,001,1,
8,short,distractor,t2,I,7,0,0,0,0,6,0,6,0,0,7,7,7,,,,,2018_Oct_03_1105,59.9922488866,test_experiment,001,1,
9,short,target,t2,8,7,0,0,0,0,6,0,6,0,0,8,8,8,,,,,2018_Oct_03_1105,59.9922488866,test_experiment,001,1,
10,short,distractor,t2,N,7,0,0,0,0,6,0,6,0,0,9,9,9,,,,,2018_Oct_03_1105,59.9922488866,test_experiment,001,1,
11,short,distractor,t2,O,7,0,0,0,0,6,0,6,0,0,10,10,10,,,,,2018_Oct_03_1105,59.9922488866,test_experiment,001,1,
12,short,distractor,t2,J,7,0,0,0,0,6,0,6,0,0,11,11,11,,,,,2018_Oct_03_1105,59.9922488866,test_experiment,001,1,
13,short,target,t2,2,7,0,0,0,0,6,0,6,0,0,12,12,12,,,,,2018_Oct_03_1105,59.9922488866,test_experiment,001,1,
14,short,distractor,t2,P,7,0,0,0,0,6,0,6,0,0,13,13,13,,,,,2018_Oct_03_1105,59.9922488866,test_experiment,001,1,
15,short,distractor,t2,I,7,0,0,0,0,6,0,6,0,0,14,14,14,,,,,2018_Oct_03_1105,59.9922488866,test_experiment,001,1,
16,short,distractor,t2,V,7,0,0,0,0,6,0,6,0,0,15,15,15,,,,,2018_Oct_03_1105,59.9922488866,test_experiment,001,1,
,,,,,,0,0,0,0,6,0,6,0,,,,,6,0.450991309219,6,0.233617497433,2018_Oct_03_1105,59.9922488866,test_experiment,001,1,
1,long,distractor,t2,Q,8,0,0,0,0,7,0,7,0,0,0,0,0,,,,,2018_Oct_03_1105,59.9922488866,test_experiment,001,1,
2,long,distractor,t2,F,8,0,0,0,0,7,0,7,0,0,1,1,1,,,,,2018_Oct_03_1105,59.9922488866,test_experiment,001,1,
3,long,distractor,t2,Y,8,0,0,0,0,7,0,7,0,0,2,2,2,,,,,2018_Oct_03_1105,59.9922488866,test_experiment,001,1,
4,long,distractor,t2,H,8,0,0,0,0,7,0,7,0,0,3,3,3,,,,,2018_Oct_03_1105,59.9922488866,test_experiment,001,1,
5,long,distractor,t2,X,8,0,0,0,0,7,0,7,0,0,4,4,4,,,,,2018_Oct_03_1105,59.9922488866,test_experiment,001,1,
6,long,distractor,t2,X,8,0,0,0,0,7,0,7,0,0,5,5,5,,,,,2018_Oct_03_1105,59.9922488866,test_experiment,001,1,
7,long,distractor,t2,Q,8,0,0,0,0,7,0,7,0,0,6,6,6,,,,,2018_Oct_03_1105,59.9922488866,test_experiment,001,1,
8,long,distractor,t2,P,8,0,0,0,0,7,0,7,0,0,7,7,7,,,,,2018_Oct_03_1105,59.9922488866,test_experiment,001,1,
9,long,target,t2,2,8,0,0,0,0,7,0,7,0,0,8,8,8,,,,,2018_Oct_03_1105,59.9922488866,test_experiment,001,1,
10,long,distractor,t2,V,8,0,0,0,0,7,0,7,0,0,9,9,9,,,,,2018_Oct_03_1105,59.9922488866,test_experiment,001,1,
11,long,distractor,t2,I,8,0,0,0,0,7,0,7,0,0,10,10,10,,,,,2018_Oct_03_1105,59.9922488866,test_experiment,001,1,
12,long,distractor,t2,G,8,0,0,0,0,7,0,7,0,0,11,11,11,,,,,2018_Oct_03_1105,59.9922488866,test_experiment,001,1,
13,long,distractor,t2,P,8,0,0,0,0,7,0,7,0,0,12,12,12,,,,,2018_Oct_03_1105,59.9922488866,test_experiment,001,1,
14,long,distractor,t2,G,8,0,0,0,0,7,0,7,0,0,13,13,13,,,,,2018_Oct_03_1105,59.9922488866,test_experiment,001,1,
15,long,distractor,t2,J,8,0,0,0,0,7,0,7,0,0,14,14,14,,,,,2018_Oct_03_1105,59.9922488866,test_experiment,001,1,
16,long,distractor,t2,B,8,0,0,0,0,7,0,7,0,0,15,15,15,,,,,2018_Oct_03_1105,59.9922488866,test_experiment,001,1,
17,long,target,t2,2,8,0,0,0,0,7,0,7,0,0,16,16,16,,,,,2018_Oct_03_1105,59.9922488866,test_experiment,001,1,
18,long,distractor,t2,K,8,0,0,0,0,7,0,7,0,0,17,17,17,,,,,2018_Oct_03_1105,59.9922488866,test_experiment,001,1,
,,,,,,0,0,0,0,7,0,7,0,,,,,6,0.267462991163,6,0.317671757424,2018_Oct_03_1105,59.9922488866,test_experiment,001,1,
1,short,distractor,t2,R,9,0,0,0,0,8,0,8,0,0,0,0,0,,,,,2018_Oct_03_1105,59.9922488866,test_experiment,001,1,
2,short,distractor,t2,P,9,0,0,0,0,8,0,8,0,0,1,1,1,,,,,2018_Oct_03_1105,59.9922488866,test_experiment,001,1,
3,short,distractor,t2,R,9,0,0,0,0,8,0,8,0,0,2,2,2,,,,,2018_Oct_03_1105,59.9922488866,test_experiment,001,1,
4,short,distractor,t2,V,9,0,0,0,0,8,0,8,0,0,3,3,3,,,,,2018_Oct_03_1105,59.9922488866,test_experiment,001,1,
5,short,distractor,t2,P,9,0,0,0,0,8,0,8,0,0,4,4,4,,,,,2018_Oct_03_1105,59.9922488866,test_experiment,001,1,
6,short,distractor,t2,E,9,0,0,0,0,8,0,8,0,0,5,5,5,,,,,2018_Oct_03_1105,59.9922488866,test_experiment,001,1,
7,short,distractor,t2,O,9,0,0,0,0,8,0,8,0,0,6,6,6,,,,,2018_Oct_03_1105,59.9922488866,test_experiment,001,1,
8,short,target,t2,5,9,0,0,0,0,8,0,8,0,0,7,7,7,,,,,2018_Oct_03_1105,59.9922488866,test_experiment,001,1,
9,short,distractor,t2,J,9,0,0,0,0,8,0,8,0,0,8,8,8,,,,,2018_Oct_03_1105,59.9922488866,test_experiment,001,1,
10,short,distractor,t2,O,9,0,0,0,0,8,0,8,0,0,9,9,9,,,,,2018_Oct_03_1105,59.9922488866,test_experiment,001,1,
11,short,distractor,t2,I,9,0,0,0,0,8,0,8,0,0,10,10,10,,,,,2018_Oct_03_1105,59.9922488866,test_experiment,001,1,
12,short,target,t2,4,9,0,0,0,0,8,0,8,0,0,11,11,11,,,,,2018_Oct_03_1105,59.9922488866,test_experiment,001,1,
13,short,distractor,t2,L,9,0,0,0,0,8,0,8,0,0,12,12,12,,,,,2018_Oct_03_1105,59.9922488866,test_experiment,001,1,
14,short,distractor,t2,Y,9,0,0,0,0,8,0,8,0,0,13,13,13,,,,,2018_Oct_03_1105,59.9922488866,test_experiment,001,1,
15,short,distractor,t2,I,9,0,0,0,0,8,0,8,0,0,14,14,14,,,,,2018_Oct_03_1105,59.9922488866,test_experiment,001,1,
16,short,distractor,t2,A,9,0,0,0,0,8,0,8,0,0,15,15,15,,,,,2018_Oct_03_1105,59.9922488866,test_experiment,001,1,
17,short,distractor,t2,S,9,0,0,0,0,8,0,8,0,0,16,16,16,,,,,2018_Oct_03_1105,59.9922488866,test_experiment,001,1,
,,,,,,0,0,0,0,8,0,8,0,,,,,6,0.350990527993,6,0.25138276098,2018_Oct_03_1105,59.9922488866,test_experiment,001,1,
1,short,distractor,t1,W,10,0,0,0,0,9,0,9,0,0,0,0,0,,,,,2018_Oct_03_1105,59.9922488866,test_experiment,001,1,
2,short,distractor,t1,P,10,0,0,0,0,9,0,9,0,0,1,1,1,,,,,2018_Oct_03_1105,59.9922488866,test_experiment,001,1,
3,short,distractor,t1,S,10,0,0,0,0,9,0,9,0,0,2,2,2,,,,,2018_Oct_03_1105,59.9922488866,test_experiment,001,1,
4,short,distractor,t1,S,10,0,0,0,0,9,0,9,0,0,3,3,3,,,,,2018_Oct_03_1105,59.9922488866,test_experiment,001,1,
5,short,target,t1,6,10,0,0,0,0,9,0,9,0,0,4,4,4,,,,,2018_Oct_03_1105,59.9922488866,test_experiment,001,1,
6,short,distractor,t1,I,10,0,0,0,0,9,0,9,0,0,5,5,5,,,,,2018_Oct_03_1105,59.9922488866,test_experiment,001,1,
7,short,distractor,t1,N,10,0,0,0,0,9,0,9,0,0,6,6,6,,,,,2018_Oct_03_1105,59.9922488866,test_experiment,001,1,
8,short,distractor,t1,A,10,0,0,0,0,9,0,9,0,0,7,7,7,,,,,2018_Oct_03_1105,59.9922488866,test_experiment,001,1,
9,short,mask,t1, ,10,0,0,0,0,9,0,9,0,0,8,8,8,,,,,2018_Oct_03_1105,59.9922488866,test_experiment,001,1,
10,short,distractor,t1,I,10,0,0,0,0,9,0,9,0,0,9,9,9,,,,,2018_Oct_03_1105,59.9922488866,test_experiment,001,1,
11,short,distractor,t1,Q,10,0,0,0,0,9,0,9,0,0,10,10,10,,,,,2018_Oct_03_1105,59.9922488866,test_experiment,001,1,
12,short,distractor,t1,M,10,0,0,0,0,9,0,9,0,0,11,11,11,,,,,2018_Oct_03_1105,59.9922488866,test_experiment,001,1,
13,short,distractor,t1,Z,10,0,0,0,0,9,0,9,0,0,12,12,12,,,,,2018_Oct_03_1105,59.9922488866,test_experiment,001,1,
14,short,distractor,t1,D,10,0,0,0,0,9,0,9,0,0,13,13,13,,,,,2018_Oct_03_1105,59.9922488866,test_experiment,001,1,
15,short,distractor,t1,N,10,0,0,0,0,9,0,9,0,0,14,14,14,,,,,2018_Oct_03_1105,59.9922488866,test_experiment,001,1,
16,short,distractor,t1,C,10,0,0,0,0,9,0,9,0,0,15,15,15,,,,,2018_Oct_03_1105,59.9922488866,test_experiment,001,1,
17,short,distractor,t1,Z,10,0,0,0,0,9,0,9,0,0,16,16,16,,,,,2018_Oct_03_1105,59.9922488866,test_experiment,001,1,
,,,,,,0,0,0,0,9,0,9,0,,,,,6,0.350918114826,6,0.268372813036,2018_Oct_03_1105,59.9922488866,test_experiment,001,1,
1,short,distractor,t2,J,11,0,0,0,0,10,0,10,0,0,0,0,0,,,,,2018_Oct_03_1105,59.9922488866,test_experiment,001,1,
2,short,distractor,t2,U,11,0,0,0,0,10,0,10,0,0,1,1,1,,,,,2018_Oct_03_1105,59.9922488866,test_experiment,001,1,
3,short,distractor,t2,O,11,0,0,0,0,10,0,10,0,0,2,2,2,,,,,2018_Oct_03_1105,59.9922488866,test_experiment,001,1,
4,short,distractor,t2,H,11,0,0,0,0,10,0,10,0,0,3,3,3,,,,,2018_Oct_03_1105,59.9922488866,test_experiment,001,1,
5,short,distractor,t2,P,11,0,0,0,0,10,0,10,0,0,4,4,4,,,,,2018_Oct_03_1105,59.9922488866,test_experiment,001,1,
6,short,distractor,t2,T,11,0,0,0,0,10,0,10,0,0,5,5,5,,,,,2018_Oct_03_1105,59.9922488866,test_experiment,001,1,
7,short,distractor,t2,E,11,0,0,0,0,10,0,10,0,0,6,6,6,,,,,2018_Oct_03_1105,59.9922488866,test_experiment,001,1,
8,short,target,t2,3,11,0,0,0,0,10,0,10,0,0,7,7,7,,,,,2018_Oct_03_1105,59.9922488866,test_experiment,001,1,
9,short,distractor,t2,R,11,0,0,0,0,10,0,10,0,0,8,8,8,,,,,2018_Oct_03_1105,59.9922488866,test_experiment,001,1,
10,short,distractor,t2,P,11,0,0,0,0,10,0,10,0,0,9,9,9,,,,,2018_Oct_03_1105,59.9922488866,test_experiment,001,1,
11,short,distractor,t2,P,11,0,0,0,0,10,0,10,0,0,10,10,10,,,,,2018_Oct_03_1105,59.9922488866,test_experiment,001,1,
12,short,target,t2,2,11,0,0,0,0,10,0,10,0,0,11,11,11,,,,,2018_Oct_03_1105,59.9922488866,test_experiment,001,1,
13,short,distractor,t2,R,11,0,0,0,0,10,0,10,0,0,12,12,12,,,,,2018_Oct_03_1105,59.9922488866,test_experiment,001,1,
14,short,distractor,t2,W,11,0,0,0,0,10,0,10,0,0,13,13,13,,,,,2018_Oct_03_1105,59.9922488866,test_experiment,001,1,
15,short,distractor,t2,F,11,0,0,0,0,10,0,10,0,0,14,14,14,,,,,2018_Oct_03_1105,59.9922488866,test_experiment,001,1,
,,,,,,0,0,0,0,10,0,10,0,,,,,6,0.317141128166,6,0.23428694364,2018_Oct_03_1105,59.9922488866,test_experiment,001,1,
1,long,target,t2,6,12,0,0,0,0,11,0,11,0,0,0,0,0,,,,,2018_Oct_03_1105,59.9922488866,test_experiment,001,1,
2,long,distractor,t2,R,12,0,0,0,0,11,0,11,0,0,1,1,1,,,,,2018_Oct_03_1105,59.9922488866,test_experiment,001,1,
3,long,distractor,t2,V,12,0,0,0,0,11,0,11,0,0,2,2,2,,,,,2018_Oct_03_1105,59.9922488866,test_experiment,001,1,
4,long,distractor,t2,P,12,0,0,0,0,11,0,11,0,0,3,3,3,,,,,2018_Oct_03_1105,59.9922488866,test_experiment,001,1,
5,long,distractor,t2,K,12,0,0,0,0,11,0,11,0,0,4,4,4,,,,,2018_Oct_03_1105,59.9922488866,test_experiment,001,1,
6,long,distractor,t2,T,12,0,0,0,0,11,0,11,0,0,5,5,5,,,,,2018_Oct_03_1105,59.9922488866,test_experiment,001,1,
7,long,distractor,t2,D,12,0,0,0,0,11,0,11,0,0,6,6,6,,,,,2018_Oct_03_1105,59.9922488866,test_experiment,001,1,
8,long,distractor,t2,J,12,0,0,0,0,11,0,11,0,0,7,7,7,,,,,2018_Oct_03_1105,59.9922488866,test_experiment,001,1,
9,long,target,t2,2,12,0,0,0,0,11,0,11,0,0,8,8,8,,,,,2018_Oct_03_1105,59.9922488866,test_experiment,001,1,
10,long,distractor,t2,O,12,0,0,0,0,11,0,11,0,0,9,9,9,,,,,2018_Oct_03_1105,59.9922488866,test_experiment,001,1,
11,long,distractor,t2,A,12,0,0,0,0,11,0,11,0,0,10,10,10,,,,,2018_Oct_03_1105,59.9922488866,test_experiment,001,1,
12,long,distractor,t2,Y,12,0,0,0,0,11,0,11,0,0,11,11,11,,,,,2018_Oct_03_1105,59.9922488866,test_experiment,001,1,
13,long,distractor,t2,T,12,0,0,0,0,11,0,11,0,0,12,12,12,,,,,2018_Oct_03_1105,59.9922488866,test_experiment,001,1,
14,long,distractor,t2,T,12,0,0,0,0,11,0,11,0,0,13,13,13,,,,,2018_Oct_03_1105,59.9922488866,test_experiment,001,1,
15,long,distractor,t2,Q,12,0,0,0,0,11,0,11,0,0,14,14,14,,,,,2018_Oct_03_1105,59.9922488866,test_experiment,001,1,
16,long,distractor,t2,W,12,0,0,0,0,11,0,11,0,0,15,15,15,,,,,2018_Oct_03_1105,59.9922488866,test_experiment,001,1,
,,,,,,0,0,0,0,11,0,11,0,,,,,6,0.449811365208,6,0.252253221333,2018_Oct_03_1105,59.9922488866,test_experiment,001,1,
1,long,distractor,t2,S,13,0,0,0,0,12,0,12,0,0,0,0,0,,,,,2018_Oct_03_1105,59.9922488866,test_experiment,001,1,
2,long,distractor,t2,K,13,0,0,0,0,12,0,12,0,0,1,1,1,,,,,2018_Oct_03_1105,59.9922488866,test_experiment,001,1,
3,long,distractor,t2,G,13,0,0,0,0,12,0,12,0,0,2,2,2,,,,,2018_Oct_03_1105,59.9922488866,test_experiment,001,1,
4,long,distractor,t2,B,13,0,0,0,0,12,0,12,0,0,3,3,3,,,,,2018_Oct_03_1105,59.9922488866,test_experiment,001,1,
5,long,distractor,t2,C,13,0,0,0,0,12,0,12,0,0,4,4,4,,,,,2018_Oct_03_1105,59.9922488866,test_experiment,001,1,
6,long,distractor,t2,V,13,0,0,0,0,12,0,12,0,0,5,5,5,,,,,2018_Oct_03_1105,59.9922488866,test_experiment,001,1,
7,long,distractor,t2,V,13,0,0,0,0,12,0,12,0,0,6,6,6,,,,,2018_Oct_03_1105,59.9922488866,test_experiment,001,1,
8,long,target,t2,4,13,0,0,0,0,12,0,12,0,0,7,7,7,,,,,2018_Oct_03_1105,59.9922488866,test_experiment,001,1,
9,long,distractor,t2,F,13,0,0,0,0,12,0,12,0,0,8,8,8,,,,,2018_Oct_03_1105,59.9922488866,test_experiment,001,1,
10,long,distractor,t2,A,13,0,0,0,0,12,0,12,0,0,9,9,9,,,,,2018_Oct_03_1105,59.9922488866,test_experiment,001,1,
11,long,distractor,t2,Z,13,0,0,0,0,12,0,12,0,0,10,10,10,,,,,2018_Oct_03_1105,59.9922488866,test_experiment,001,1,
12,long,distractor,t2,L,13,0,0,0,0,12,0,12,0,0,11,11,11,,,,,2018_Oct_03_1105,59.9922488866,test_experiment,001,1,
13,long,distractor,t2,I,13,0,0,0,0,12,0,12,0,0,12,12,12,,,,,2018_Oct_03_1105,59.9922488866,test_experiment,001,1,
14,long,distractor,t2,L,13,0,0,0,0,12,0,12,0,0,13,13,13,,,,,2018_Oct_03_1105,59.9922488866,test_experiment,001,1,
15,long,distractor,t2,X,13,0,0,0,0,12,0,12,0,0,14,14,14,,,,,2018_Oct_03_1105,59.9922488866,test_experiment,001,1,
16,long,target,t2,3,13,0,0,0,0,12,0,12,0,0,15,15,15,,,,,2018_Oct_03_1105,59.9922488866,test_experiment,001,1,
17,long,distractor,t2,C,13,0,0,0,0,12,0,12,0,0,16,16,16,,,,,2018_Oct_03_1105,59.9922488866,test_experiment,001,1,
18,long,distractor,t2,R,13,0,0,0,0,12,0,12,0,0,17,17,17,,,,,2018_Oct_03_1105,59.9922488866,test_experiment,001,1,
,,,,,,0,0,0,0,12,0,12,0,,,,,6,0.634170181162,6,0.301822287875,2018_Oct_03_1105,59.9922488866,test_experiment,001,1,
1,short,distractor,t1,M,14,0,0,0,0,13,0,13,0,0,0,0,0,,,,,2018_Oct_03_1105,59.9922488866,test_experiment,001,1,
2,short,target,t1,6,14,0,0,0,0,13,0,13,0,0,1,1,1,,,,,2018_Oct_03_1105,59.9922488866,test_experiment,001,1,
3,short,distractor,t1,P,14,0,0,0,0,13,0,13,0,0,2,2,2,,,,,2018_Oct_03_1105,59.9922488866,test_experiment,001,1,
4,short,distractor,t1,O,14,0,0,0,0,13,0,13,0,0,3,3,3,,,,,2018_Oct_03_1105,59.9922488866,test_experiment,001,1,
5,short,distractor,t1,V,14,0,0,0,0,13,0,13,0,0,4,4,4,,,,,2018_Oct_03_1105,59.9922488866,test_experiment,001,1,
6,short,mask,t1, ,14,0,0,0,0,13,0,13,0,0,5,5,5,,,,,2018_Oct_03_1105,59.9922488866,test_experiment,001,1,
7,short,distractor,t1,I,14,0,0,0,0,13,0,13,0,0,6,6,6,,,,,2018_Oct_03_1105,59.9922488866,test_experiment,001,1,
8,short,distractor,t1,C,14,0,0,0,0,13,0,13,0,0,7,7,7,,,,,2018_Oct_03_1105,59.9922488866,test_experiment,001,1,
9,short,distractor,t1,D,14,0,0,0,0,13,0,13,0,0,8,8,8,,,,,2018_Oct_03_1105,59.9922488866,test_experiment,001,1,
10,short,distractor,t1,T,14,0,0,0,0,13,0,13,0,0,9,9,9,,,,,2018_Oct_03_1105,59.9922488866,test_experiment,001,1,
11,short,distractor,t1,K,14,0,0,0,0,13,0,13,0,0,10,10,10,,,,,2018_Oct_03_1105,59.9922488866,test_experiment,001,1,
12,short,distractor,t1,X,14,0,0,0,0,13,0,13,0,0,11,11,11,,,,,2018_Oct_03_1105,59.9922488866,test_experiment,001,1,
13,short,distractor,t1,G,14,0,0,0,0,13,0,13,0,0,12,12,12,,,,,2018_Oct_03_1105,59.9922488866,test_experiment,001,1,
14,short,distractor,t1,I,14,0,0,0,0,13,0,13,0,0,13,13,13,,,,,2018_Oct_03_1105,59.9922488866,test_experiment,001,1,
15,short,distractor,t1,F,14,0,0,0,0,13,0,13,0,0,14,14,14,,,,,2018_Oct_03_1105,59.9922488866,test_experiment,001,1,
,,,,,,0,0,0,0,13,0,13,0,,,,,6,0.534186226228,6,0.251364432348,2018_Oct_03_1105,59.9922488866,test_experiment,001,1,
1,long,distractor,t2,B,15,0,0,0,0,14,0,14,0,0,0,0,0,,,,,2018_Oct_03_1105,59.9922488866,test_experiment,001,1,
2,long,distractor,t2,H,15,0,0,0,0,14,0,14,0,0,1,1,1,,,,,2018_Oct_03_1105,59.9922488866,test_experiment,001,1,
3,long,distractor,t2,J,15,0,0,0,0,14,0,14,0,0,2,2,2,,,,,2018_Oct_03_1105,59.9922488866,test_experiment,001,1,
4,long,target,t2,4,15,0,0,0,0,14,0,14,0,0,3,3,3,,,,,2018_Oct_03_1105,59.9922488866,test_experiment,001,1,
5,long,distractor,t2,F,15,0,0,0,0,14,0,14,0,0,4,4,4,,,,,2018_Oct_03_1105,59.9922488866,test_experiment,001,1,
6,long,distractor,t2,H,15,0,0,0,0,14,0,14,0,0,5,5,5,,,,,2018_Oct_03_1105,59.9922488866,test_experiment,001,1,
7,long,distractor,t2,E,15,0,0,0,0,14,0,14,0,0,6,6,6,,,,,2018_Oct_03_1105,59.9922488866,test_experiment,001,1,
8,long,distractor,t2,K,15,0,0,0,0,14,0,14,0,0,7,7,7,,,,,2018_Oct_03_1105,59.9922488866,test_experiment,001,1,
9,long,distractor,t2,G,15,0,0,0,0,14,0,14,0,0,8,8,8,,,,,2018_Oct_03_1105,59.9922488866,test_experiment,001,1,
10,long,mask,t2, ,15,0,0,0,0,14,0,14,0,0,9,9,9,,,,,2018_Oct_03_1105,59.9922488866,test_experiment,001,1,
11,long,distractor,t2,H,15,0,0,0,0,14,0,14,0,0,10,10,10,,,,,2018_Oct_03_1105,59.9922488866,test_experiment,001,1,
12,long,target,t2,6,15,0,0,0,0,14,0,14,0,0,11,11,11,,,,,2018_Oct_03_1105,59.9922488866,test_experiment,001,1,
13,long,distractor,t2,Q,15,0,0,0,0,14,0,14,0,0,12,12,12,,,,,2018_Oct_03_1105,59.9922488866,test_experiment,001,1,
14,long,distractor,t2,I,15,0,0,0,0,14,0,14,0,0,13,13,13,,,,,2018_Oct_03_1105,59.9922488866,test_experiment,001,1,
15,long,distractor,t2,K,15,0,0,0,0,14,0,14,0,0,14,14,14,,,,,2018_Oct_03_1105,59.9922488866,test_experiment,001,1,
,,,,,,0,0,0,0,14,0,14,0,,,,,6,0.799406512495,6,0.268511629984,2018_Oct_03_1105,59.9922488866,test_experiment,001,1,
1,long,distractor,t2,C,16,0,0,0,0,15,0,15,0,0,0,0,0,,,,,2018_Oct_03_1105,59.9922488866,test_experiment,001,1,
2,long,distractor,t2,L,16,0,0,0,0,15,0,15,0,0,1,1,1,,,,,2018_Oct_03_1105,59.9922488866,test_experiment,001,1,
3,long,distractor,t2,Q,16,0,0,0,0,15,0,15,0,0,2,2,2,,,,,2018_Oct_03_1105,59.9922488866,test_experiment,001,1,
4,long,distractor,t2,T,16,0,0,0,0,15,0,15,0,0,3,3,3,,,,,2018_Oct_03_1105,59.9922488866,test_experiment,001,1,
5,long,target,t2,6,16,0,0,0,0,15,0,15,0,0,4,4,4,,,,,2018_Oct_03_1105,59.9922488866,test_experiment,001,1,
6,long,distractor,t2,H,16,0,0,0,0,15,0,15,0,0,5,5,5,,,,,2018_Oct_03_1105,59.9922488866,test_experiment,001,1,
7,long,distractor,t2,V,16,0,0,0,0,15,0,15,0,0,6,6,6,,,,,2018_Oct_03_1105,59.9922488866,test_experiment,001,1,
8,long,distractor,t2,J,16,0,0,0,0,15,0,15,0,0,7,7,7,,,,,2018_Oct_03_1105,59.9922488866,test_experiment,001,1,
9,long,distractor,t2,T,16,0,0,0,0,15,0,15,0,0,8,8,8,,,,,2018_Oct_03_1105,59.9922488866,test_experiment,001,1,
10,long,distractor,t2,S,16,0,0,0,0,15,0,15,0,0,9,9,9,,,,,2018_Oct_03_1105,59.9922488866,test_experiment,001,1,
11,long,distractor,t2,K,16,0,0,0,0,15,0,15,0,0,10,10,10,,,,,2018_Oct_03_1105,59.9922488866,test_experiment,001,1,
12,long,distractor,t2,H,16,0,0,0,0,15,0,15,0,0,11,11,11,,,,,2018_Oct_03_1105,59.9922488866,test_experiment,001,1,
13,long,target,t2,4,16,0,0,0,0,15,0,15,0,0,12,12,12,,,,,2018_Oct_03_1105,59.9922488866,test_experiment,001,1,
14,long,distractor,t2,K,16,0,0,0,0,15,0,15,0,0,13,13,13,,,,,2018_Oct_03_1105,59.9922488866,test_experiment,001,1,
15,long,distractor,t2,P,16,0,0,0,0,15,0,15,0,0,14,14,14,,,,,2018_Oct_03_1105,59.9922488866,test_experiment,001,1,
,,,,,,0,0,0,0,15,0,15,0,,,,,6,0.56759093111,6,0.23446181693,2018_Oct_03_1105,59.9922488866,test_experiment,001,1,
1,short,distractor,t1,C,17,0,0,0,0,16,0,16,0,0,0,0,0,,,,,2018_Oct_03_1105,59.9922488866,test_experiment,001,1,
2,short,distractor,t1,X,17,0,0,0,0,16,0,16,0,0,1,1,1,,,,,2018_Oct_03_1105,59.9922488866,test_experiment,001,1,
3,short,target,t1,4,17,0,0,0,0,16,0,16,0,0,2,2,2,,,,,2018_Oct_03_1105,59.9922488866,test_experiment,001,1,
4,short,distractor,t1,O,17,0,0,0,0,16,0,16,0,0,3,3,3,,,,,2018_Oct_03_1105,59.9922488866,test_experiment,001,1,
5,short,distractor,t1,X,17,0,0,0,0,16,0,16,0,0,4,4,4,,,,,2018_Oct_03_1105,59.9922488866,test_experiment,001,1,
6,short,distractor,t1,O,17,0,0,0,0,16,0,16,0,0,5,5,5,,,,,2018_Oct_03_1105,59.9922488866,test_experiment,001,1,
7,short,mask,t1, ,17,0,0,0,0,16,0,16,0,0,6,6,6,,,,,2018_Oct_03_1105,59.9922488866,test_experiment,001,1,
8,short,distractor,t1,Y,17,0,0,0,0,16,0,16,0,0,7,7,7,,,,,2018_Oct_03_1105,59.9922488866,test_experiment,001,1,
9,short,distractor,t1,I,17,0,0,0,0,16,0,16,0,0,8,8,8,,,,,2018_Oct_03_1105,59.9922488866,test_experiment,001,1,
10,short,distractor,t1,H,17,0,0,0,0,16,0,16,0,0,9,9,9,,,,,2018_Oct_03_1105,59.9922488866,test_experiment,001,1,
11,short,distractor,t1,N,17,0,0,0,0,16,0,16,0,0,10,10,10,,,,,2018_Oct_03_1105,59.9922488866,test_experiment,001,1,
12,short,distractor,t1,B,17,0,0,0,0,16,0,16,0,0,11,11,11,,,,,2018_Oct_03_1105,59.9922488866,test_experiment,001,1,
13,short,distractor,t1,K,17,0,0,0,0,16,0,16,0,0,12,12,12,,,,,2018_Oct_03_1105,59.9922488866,test_experiment,001,1,
14,short,distractor,t1,M,17,0,0,0,0,16,0,16,0,0,13,13,13,,,,,2018_Oct_03_1105,59.9922488866,test_experiment,001,1,
15,short,distractor,t1,F,17,0,0,0,0,16,0,16,0,0,14,14,14,,,,,2018_Oct_03_1105,59.9922488866,test_experiment,001,1,
16,short,distractor,t1,G,17,0,0,0,0,16,0,16,0,0,15,15,15,,,,,2018_Oct_03_1105,59.9922488866,test_experiment,001,1,
,,,,,,0,0,0,0,16,0,16,0,,,,,6,1.36764255178,6,0.20158293382,2018_Oct_03_1105,59.9922488866,test_experiment,001,1,
1,short,distractor,t1,U,18,0,0,0,0,17,0,17,0,0,0,0,0,,,,,2018_Oct_03_1105,59.9922488866,test_experiment,001,1,
2,short,distractor,t1,O,18,0,0,0,0,17,0,17,0,0,1,1,1,,,,,2018_Oct_03_1105,59.9922488866,test_experiment,001,1,
3,short,distractor,t1,Q,18,0,0,0,0,17,0,17,0,0,2,2,2,,,,,2018_Oct_03_1105,59.9922488866,test_experiment,001,1,
4,short,distractor,t1,W,18,0,0,0,0,17,0,17,0,0,3,3,3,,,,,2018_Oct_03_1105,59.9922488866,test_experiment,001,1,
5,short,distractor,t1,V,18,0,0,0,0,17,0,17,0,0,4,4,4,,,,,2018_Oct_03_1105,59.9922488866,test_experiment,001,1,
6,short,target,t1,1,18,0,0,0,0,17,0,17,0,0,5,5,5,,,,,2018_Oct_03_1105,59.9922488866,test_experiment,001,1,
7,short,distractor,t1,E,18,0,0,0,0,17,0,17,0,0,6,6,6,,,,,2018_Oct_03_1105,59.9922488866,test_experiment,001,1,
8,short,distractor,t1,M,18,0,0,0,0,17,0,17,0,0,7,7,7,,,,,2018_Oct_03_1105,59.9922488866,test_experiment,001,1,
9,short,distractor,t1,E,18,0,0,0,0,17,0,17,0,0,8,8,8,,,,,2018_Oct_03_1105,59.9922488866,test_experiment,001,1,
10,short,mask,t1, ,18,0,0,0,0,17,0,17,0,0,9,9,9,,,,,2018_Oct_03_1105,59.9922488866,test_experiment,001,1,
11,short,distractor,t1,B,18,0,0,0,0,17,0,17,0,0,10,10,10,,,,,2018_Oct_03_1105,59.9922488866,test_experiment,001,1,
12,short,distractor,t1,W,18,0,0,0,0,17,0,17,0,0,11,11,11,,,,,2018_Oct_03_1105,59.9922488866,test_experiment,001,1,
13,short,distractor,t1,Y,18,0,0,0,0,17,0,17,0,0,12,12,12,,,,,2018_Oct_03_1105,59.9922488866,test_experiment,001,1,
14,short,distractor,t1,O,18,0,0,0,0,17,0,17,0,0,13,13,13,,,,,2018_Oct_03_1105,59.9922488866,test_experiment,001,1,
15,short,distractor,t1,N,18,0,0,0,0,17,0,17,0,0,14,14,14,,,,,2018_Oct_03_1105,59.9922488866,test_experiment,001,1,
,,,,,,0,0,0,0,17,0,17,0,,,,,6,0.267643573374,6,0.201903234367,2018_Oct_03_1105,59.9922488866,test_experiment,001,1,
1,short,distractor,t1,K,19,0,0,0,0,18,0,18,0,0,0,0,0,,,,,2018_Oct_03_1105,59.9922488866,test_experiment,001,1,
2,short,target,t1,8,19,0,0,0,0,18,0,18,0,0,1,1,1,,,,,2018_Oct_03_1105,59.9922488866,test_experiment,001,1,
3,short,distractor,t1,C,19,0,0,0,0,18,0,18,0,0,2,2,2,,,,,2018_Oct_03_1105,59.9922488866,test_experiment,001,1,
4,short,distractor,t1,W,19,0,0,0,0,18,0,18,0,0,3,3,3,,,,,2018_Oct_03_1105,59.9922488866,test_experiment,001,1,
5,short,distractor,t1,N,19,0,0,0,0,18,0,18,0,0,4,4,4,,,,,2018_Oct_03_1105,59.9922488866,test_experiment,001,1,
6,short,mask,t1, ,19,0,0,0,0,18,0,18,0,0,5,5,5,,,,,2018_Oct_03_1105,59.9922488866,test_experiment,001,1,
7,short,distractor,t1,D,19,0,0,0,0,18,0,18,0,0,6,6,6,,,,,2018_Oct_03_1105,59.9922488866,test_experiment,001,1,
8,short,distractor,t1,C,19,0,0,0,0,18,0,18,0,0,7,7,7,,,,,2018_Oct_03_1105,59.9922488866,test_experiment,001,1,
9,short,distractor,t1,O,19,0,0,0,0,18,0,18,0,0,8,8,8,,,,,2018_Oct_03_1105,59.9922488866,test_experiment,001,1,
10,short,distractor,t1,F,19,0,0,0,0,18,0,18,0,0,9,9,9,,,,,2018_Oct_03_1105,59.9922488866,test_experiment,001,1,
11,short,distractor,t1,F,19,0,0,0,0,18,0,18,0,0,10,10,10,,,,,2018_Oct_03_1105,59.9922488866,test_experiment,001,1,
12,short,distractor,t1,F,19,0,0,0,0,18,0,18,0,0,11,11,11,,,,,2018_Oct_03_1105,59.9922488866,test_experiment,001,1,
13,short,distractor,t1,C,19,0,0,0,0,18,0,18,0,0,12,12,12,,,,,2018_Oct_03_1105,59.9922488866,test_experiment,001,1,
14,short,distractor,t1,W,19,0,0,0,0,18,0,18,0,0,13,13,13,,,,,2018_Oct_03_1105,59.9922488866,test_experiment,001,1,
15,short,distractor,t1,N,19,0,0,0,0,18,0,18,0,0,14,14,14,,,,,2018_Oct_03_1105,59.9922488866,test_experiment,001,1,
16,short,distractor,t1,Y,19,0,0,0,0,18,0,18,0,0,15,15,15,,,,,2018_Oct_03_1105,59.9922488866,test_experiment,001,1,
17,short,distractor,t1,E,19,0,0,0,0,18,0,18,0,0,16,16,16,,,,,2018_Oct_03_1105,59.9922488866,test_experiment,001,1,
,,,,,,0,0,0,0,18,0,18,0,,,,,6,0.301222250142,6,0.201247910227,2018_Oct_03_1105,59.9922488866,test_experiment,001,1,
1,short,distractor,t2,A,20,0,0,0,0,19,0,19,0,0,0,0,0,,,,,2018_Oct_03_1105,59.9922488866,test_experiment,001,1,
2,short,distractor,t2,V,20,0,0,0,0,19,0,19,0,0,1,1,1,,,,,2018_Oct_03_1105,59.9922488866,test_experiment,001,1,
3,short,distractor,t2,Z,20,0,0,0,0,19,0,19,0,0,2,2,2,,,,,2018_Oct_03_1105,59.9922488866,test_experiment,001,1,
4,short,distractor,t2,Q,20,0,0,0,0,19,0,19,0,0,3,3,3,,,,,2018_Oct_03_1105,59.9922488866,test_experiment,001,1,
5,short,target,t2,7,20,0,0,0,0,19,0,19,0,0,4,4,4,,,,,2018_Oct_03_1105,59.9922488866,test_experiment,001,1,
6,short,distractor,t2,L,20,0,0,0,0,19,0,19,0,0,5,5,5,,,,,2018_Oct_03_1105,59.9922488866,test_experiment,001,1,
7,short,distractor,t2,W,20,0,0,0,0,19,0,19,0,0,6,6,6,,,,,2018_Oct_03_1105,59.9922488866,test_experiment,001,1,
8,short,distractor,t2,T,20,0,0,0,0,19,0,19,0,0,7,7,7,,,,,2018_Oct_03_1105,59.9922488866,test_experiment,001,1,
9,short,target,t2,5,20,0,0,0,0,19,0,19,0,0,8,8,8,,,,,2018_Oct_03_1105,59.9922488866,test_experiment,001,1,
10,short,distractor,t2,N,20,0,0,0,0,19,0,19,0,0,9,9,9,,,,,2018_Oct_03_1105,59.9922488866,test_experiment,001,1,
11,short,distractor,t2,N,20,0,0,0,0,19,0,19,0,0,10,10,10,,,,,2018_Oct_03_1105,59.9922488866,test_experiment,001,1,
12,short,distractor,t2,S,20,0,0,0,0,19,0,19,0,0,11,11,11,,,,,2018_Oct_03_1105,59.9922488866,test_experiment,001,1,
13,short,distractor,t2,V,20,0,0,0,0,19,0,19,0,0,12,12,12,,,,,2018_Oct_03_1105,59.9922488866,test_experiment,001,1,
14,short,distractor,t2,C,20,0,0,0,0,19,0,19,0,0,13,13,13,,,,,2018_Oct_03_1105,59.9922488866,test_experiment,001,1,
15,short,distractor,t2,Z,20,0,0,0,0,19,0,19,0,0,14,14,14,,,,,2018_Oct_03_1105,59.9922488866,test_experiment,001,1,
,,,,,,0,0,0,0,19,0,19,0,,,,,6,0.265812812257,6,0.201334145007,2018_Oct_03_1105,59.9922488866,test_experiment,001,1,
1,short,distractor,t1,Z,21,0,0,0,0,20,0,20,0,0,0,0,0,,,,,2018_Oct_03_1105,59.9922488866,test_experiment,001,1,
2,short,distractor,t1,I,21,0,0,0,0,20,0,20,0,0,1,1,1,,,,,2018_Oct_03_1105,59.9922488866,test_experiment,001,1,
3,short,target,t1,1,21,0,0,0,0,20,0,20,0,0,2,2,2,,,,,2018_Oct_03_1105,59.9922488866,test_experiment,001,1,
4,short,distractor,t1,O,21,0,0,0,0,20,0,20,0,0,3,3,3,,,,,2018_Oct_03_1105,59.9922488866,test_experiment,001,1,
5,short,distractor,t1,J,21,0,0,0,0,20,0,20,0,0,4,4,4,,,,,2018_Oct_03_1105,59.9922488866,test_experiment,001,1,
6,short,distractor,t1,X,21,0,0,0,0,20,0,20,0,0,5,5,5,,,,,2018_Oct_03_1105,59.9922488866,test_experiment,001,1,
7,short,mask,t1, ,21,0,0,0,0,20,0,20,0,0,6,6,6,,,,,2018_Oct_03_1105,59.9922488866,test_experiment,001,1,
8,short,distractor,t1,E,21,0,0,0,0,20,0,20,0,0,7,7,7,,,,,2018_Oct_03_1105,59.9922488866,test_experiment,001,1,
9,short,distractor,t1,R,21,0,0,0,0,20,0,20,0,0,8,8,8,,,,,2018_Oct_03_1105,59.9922488866,test_experiment,001,1,
10,short,distractor,t1,V,21,0,0,0,0,20,0,20,0,0,9,9,9,,,,,2018_Oct_03_1105,59.9922488866,test_experiment,001,1,
11,short,distractor,t1,E,21,0,0,0,0,20,0,20,0,0,10,10,10,,,,,2018_Oct_03_1105,59.9922488866,test_experiment,001,1,
12,short,distractor,t1,W,21,0,0,0,0,20,0,20,0,0,11,11,11,,,,,2018_Oct_03_1105,59.9922488866,test_experiment,001,1,
13,short,distractor,t1,H,21,0,0,0,0,20,0,20,0,0,12,12,12,,,,,2018_Oct_03_1105,59.9922488866,test_experiment,001,1,
14,short,distractor,t1,D,21,0,0,0,0,20,0,20,0,0,13,13,13,,,,,2018_Oct_03_1105,59.9922488866,test_experiment,001,1,
15,short,distractor,t1,T,21,0,0,0,0,20,0,20,0,0,14,14,14,,,,,2018_Oct_03_1105,59.9922488866,test_experiment,001,1,
16,short,distractor,t1,A,21,0,0,0,0,20,0,20,0,0,15,15,15,,,,,2018_Oct_03_1105,59.9922488866,test_experiment,001,1,
,,,,,,0,0,0,0,20,0,20,0,,,,,6,0.284491202852,6,0.20072268942,2018_Oct_03_1105,59.9922488866,test_experiment,001,1,
1,long,target,t2,3,22,0,0,0,0,21,0,21,0,0,0,0,0,,,,,2018_Oct_03_1105,59.9922488866,test_experiment,001,1,
2,long,distractor,t2,T,22,0,0,0,0,21,0,21,0,0,1,1,1,,,,,2018_Oct_03_1105,59.9922488866,test_experiment,001,1,
3,long,distractor,t2,S,22,0,0,0,0,21,0,21,0,0,2,2,2,,,,,2018_Oct_03_1105,59.9922488866,test_experiment,001,1,
4,long,mask,t2, ,22,0,0,0,0,21,0,21,0,0,3,3,3,,,,,2018_Oct_03_1105,59.9922488866,test_experiment,001,1,
5,long,distractor,t2,S,22,0,0,0,0,21,0,21,0,0,4,4,4,,,,,2018_Oct_03_1105,59.9922488866,test_experiment,001,1,
6,long,distractor,t2,I,22,0,0,0,0,21,0,21,0,0,5,5,5,,,,,2018_Oct_03_1105,59.9922488866,test_experiment,001,1,
7,long,distractor,t2,R,22,0,0,0,0,21,0,21,0,0,6,6,6,,,,,2018_Oct_03_1105,59.9922488866,test_experiment,001,1,
8,long,distractor,t2,P,22,0,0,0,0,21,0,21,0,0,7,7,7,,,,,2018_Oct_03_1105,59.9922488866,test_experiment,001,1,
9,long,target,t2,4,22,0,0,0,0,21,0,21,0,0,8,8,8,,,,,2018_Oct_03_1105,59.9922488866,test_experiment,001,1,
10,long,distractor,t2,N,22,0,0,0,0,21,0,21,0,0,9,9,9,,,,,2018_Oct_03_1105,59.9922488866,test_experiment,001,1,
11,long,distractor,t2,T,22,0,0,0,0,21,0,21,0,0,10,10,10,,,,,2018_Oct_03_1105,59.9922488866,test_experiment,001,1,
12,long,distractor,t2,X,22,0,0,0,0,21,0,21,0,0,11,11,11,,,,,2018_Oct_03_1105,59.9922488866,test_experiment,001,1,
13,long,distractor,t2,T,22,0,0,0,0,21,0,21,0,0,12,12,12,,,,,2018_Oct_03_1105,59.9922488866,test_experiment,001,1,
14,long,distractor,t2,E,22,0,0,0,0,21,0,21,0,0,13,13,13,,,,,2018_Oct_03_1105,59.9922488866,test_experiment,001,1,
15,long,distractor,t2,S,22,0,0,0,0,21,0,21,0,0,14,14,14,,,,,2018_Oct_03_1105,59.9922488866,test_experiment,001,1,
16,long,distractor,t2,J,22,0,0,0,0,21,0,21,0,0,15,15,15,,,,,2018_Oct_03_1105,59.9922488866,test_experiment,001,1,
17,long,distractor,t2,L,22,0,0,0,0,21,0,21,0,0,16,16,16,,,,,2018_Oct_03_1105,59.9922488866,test_experiment,001,1,
18,long,distractor,t2,P,22,0,0,0,0,21,0,21,0,0,17,17,17,,,,,2018_Oct_03_1105,59.9922488866,test_experiment,001,1,
,,,,,,0,0,0,0,21,0,21,0,,,,,6,0.552522982922,6,0.21805407491,2018_Oct_03_1105,59.9922488866,test_experiment,001,1,
1,long,distractor,t2,H,23,0,0,0,0,22,0,22,0,0,0,0,0,,,,,2018_Oct_03_1105,59.9922488866,test_experiment,001,1,
2,long,distractor,t2,S,23,0,0,0,0,22,0,22,0,0,1,1,1,,,,,2018_Oct_03_1105,59.9922488866,test_experiment,001,1,
3,long,distractor,t2,P,23,0,0,0,0,22,0,22,0,0,2,2,2,,,,,2018_Oct_03_1105,59.9922488866,test_experiment,001,1,
4,long,distractor,t2,H,23,0,0,0,0,22,0,22,0,0,3,3,3,,,,,2018_Oct_03_1105,59.9922488866,test_experiment,001,1,
5,long,target,t2,5,23,0,0,0,0,22,0,22,0,0,4,4,4,,,,,2018_Oct_03_1105,59.9922488866,test_experiment,001,1,
6,long,distractor,t2,R,23,0,0,0,0,22,0,22,0,0,5,5,5,,,,,2018_Oct_03_1105,59.9922488866,test_experiment,001,1,
7,long,distractor,t2,C,23,0,0,0,0,22,0,22,0,0,6,6,6,,,,,2018_Oct_03_1105,59.9922488866,test_experiment,001,1,
8,long,distractor,t2,J,23,0,0,0,0,22,0,22,0,0,7,7,7,,,,,2018_Oct_03_1105,59.9922488866,test_experiment,001,1,
9,long,distractor,t2,S,23,0,0,0,0,22,0,22,0,0,8,8,8,,,,,2018_Oct_03_1105,59.9922488866,test_experiment,001,1,
10,long,distractor,t2,O,23,0,0,0,0,22,0,22,0,0,9,9,9,,,,,2018_Oct_03_1105,59.9922488866,test_experiment,001,1,
11,long,distractor,t2,J,23,0,0,0,0,22,0,22,0,0,10,10,10,,,,,2018_Oct_03_1105,59.9922488866,test_experiment,001,1,
12,long,distractor,t2,W,23,0,0,0,0,22,0,22,0,0,11,11,11,,,,,2018_Oct_03_1105,59.9922488866,test_experiment,001,1,
13,long,target,t2,5,23,0,0,0,0,22,0,22,0,0,12,12,12,,,,,2018_Oct_03_1105,59.9922488866,test_experiment,001,1,
14,long,distractor,t2,J,23,0,0,0,0,22,0,22,0,0,13,13,13,,,,,2018_Oct_03_1105,59.9922488866,test_experiment,001,1,
15,long,distractor,t2,Z,23,0,0,0,0,22,0,22,0,0,14,14,14,,,,,2018_Oct_03_1105,59.9922488866,test_experiment,001,1,
16,long,distractor,t2,O,23,0,0,0,0,22,0,22,0,0,15,15,15,,,,,2018_Oct_03_1105,59.9922488866,test_experiment,001,1,
17,long,distractor,t2,K,23,0,0,0,0,22,0,22,0,0,16,16,16,,,,,2018_Oct_03_1105,59.9922488866,test_experiment,001,1,
,,,,,,0,0,0,0,22,0,22,0,,,,,6,0.567593334868,6,0.201308605087,2018_Oct_03_1105,59.9922488866,test_experiment,001,1,
1,short,distractor,t2,Z,24,0,0,0,0,23,0,23,0,0,0,0,0,,,,,2018_Oct_03_1105,59.9922488866,test_experiment,001,1,
2,short,target,t2,7,24,0,0,0,0,23,0,23,0,0,1,1,1,,,,,2018_Oct_03_1105,59.9922488866,test_experiment,001,1,
3,short,distractor,t2,P,24,0,0,0,0,23,0,23,0,0,2,2,2,,,,,2018_Oct_03_1105,59.9922488866,test_experiment,001,1,
4,short,distractor,t2,M,24,0,0,0,0,23,0,23,0,0,3,3,3,,,,,2018_Oct_03_1105,59.9922488866,test_experiment,001,1,
5,short,distractor,t2,P,24,0,0,0,0,23,0,23,0,0,4,4,4,,,,,2018_Oct_03_1105,59.9922488866,test_experiment,001,1,
6,short,target,t2,6,24,0,0,0,0,23,0,23,0,0,5,5,5,,,,,2018_Oct_03_1105,59.9922488866,test_experiment,001,1,
7,short,distractor,t2,W,24,0,0,0,0,23,0,23,0,0,6,6,6,,,,,2018_Oct_03_1105,59.9922488866,test_experiment,001,1,
8,short,distractor,t2,F,24,0,0,0,0,23,0,23,0,0,7,7,7,,,,,2018_Oct_03_1105,59.9922488866,test_experiment,001,1,
9,short,distractor,t2,H,24,0,0,0,0,23,0,23,0,0,8,8,8,,,,,2018_Oct_03_1105,59.9922488866,test_experiment,001,1,
10,short,distractor,t2,D,24,0,0,0,0,23,0,23,0,0,9,9,9,,,,,2018_Oct_03_1105,59.9922488866,test_experiment,001,1,
11,short,distractor,t2,Y,24,0,0,0,0,23,0,23,0,0,10,10,10,,,,,2018_Oct_03_1105,59.9922488866,test_experiment,001,1,
12,short,distractor,t2,G,24,0,0,0,0,23,0,23,0,0,11,11,11,,,,,2018_Oct_03_1105,59.9922488866,test_experiment,001,1,
13,short,distractor,t2,F,24,0,0,0,0,23,0,23,0,0,12,12,12,,,,,2018_Oct_03_1105,59.9922488866,test_experiment,001,1,
14,short,distractor,t2,S,24,0,0,0,0,23,0,23,0,0,13,13,13,,,,,2018_Oct_03_1105,59.9922488866,test_experiment,001,1,
15,short,distractor,t2,K,24,0,0,0,0,23,0,23,0,0,14,14,14,,,,,2018_Oct_03_1105,59.9922488866,test_experiment,001,1,
16,short,distractor,t2,J,24,0,0,0,0,23,0,23,0,0,15,15,15,,,,,2018_Oct_03_1105,59.9922488866,test_experiment,001,1,
17,short,distractor,t2,K,24,0,0,0,0,23,0,23,0,0,16,16,16,,,,,2018_Oct_03_1105,59.9922488866,test_experiment,001,1,
18,short,distractor,t2,V,24,0,0,0,0,23,0,23,0,0,17,17,17,,,,,2018_Oct_03_1105,59.9922488866,test_experiment,001,1,
,,,,,,0,0,0,0,23,0,23,0,,,,,6,0.301687377025,6,0.234321497628,2018_Oct_03_1105,59.9922488866,test_experiment,001,1,
1,short,distractor,t1,F,25,0,0,0,0,24,0,24,0,0,0,0,0,,,,,2018_Oct_03_1105,59.9922488866,test_experiment,001,1,
2,short,distractor,t1,M,25,0,0,0,0,24,0,24,0,0,1,1,1,,,,,2018_Oct_03_1105,59.9922488866,test_experiment,001,1,
3,short,distractor,t1,K,25,0,0,0,0,24,0,24,0,0,2,2,2,,,,,2018_Oct_03_1105,59.9922488866,test_experiment,001,1,
4,short,distractor,t1,P,25,0,0,0,0,24,0,24,0,0,3,3,3,,,,,2018_Oct_03_1105,59.9922488866,test_experiment,001,1,
5,short,target,t1,5,25,0,0,0,0,24,0,24,0,0,4,4,4,,,,,2018_Oct_03_1105,59.9922488866,test_experiment,001,1,
6,short,distractor,t1,E,25,0,0,0,0,24,0,24,0,0,5,5,5,,,,,2018_Oct_03_1105,59.9922488866,test_experiment,001,1,
7,short,distractor,t1,B,25,0,0,0,0,24,0,24,0,0,6,6,6,,,,,2018_Oct_03_1105,59.9922488866,test_experiment,001,1,
8,short,distractor,t1,N,25,0,0,0,0,24,0,24,0,0,7,7,7,,,,,2018_Oct_03_1105,59.9922488866,test_experiment,001,1,
9,short,mask,t1, ,25,0,0,0,0,24,0,24,0,0,8,8,8,,,,,2018_Oct_03_1105,59.9922488866,test_experiment,001,1,
10,short,distractor,t1,T,25,0,0,0,0,24,0,24,0,0,9,9,9,,,,,2018_Oct_03_1105,59.9922488866,test_experiment,001,1,
11,short,distractor,t1,J,25,0,0,0,0,24,0,24,0,0,10,10,10,,,,,2018_Oct_03_1105,59.9922488866,test_experiment,001,1,
12,short,distractor,t1,T,25,0,0,0,0,24,0,24,0,0,11,11,11,,,,,2018_Oct_03_1105,59.9922488866,test_experiment,001,1,
13,short,distractor,t1,J,25,0,0,0,0,24,0,24,0,0,12,12,12,,,,,2018_Oct_03_1105,59.9922488866,test_experiment,001,1,
14,short,distractor,t1,G,25,0,0,0,0,24,0,24,0,0,13,13,13,,,,,2018_Oct_03_1105,59.9922488866,test_experiment,001,1,
15,short,distractor,t1,D,25,0,0,0,0,24,0,24,0,0,14,14,14,,,,,2018_Oct_03_1105,59.9922488866,test_experiment,001,1,
16,short,distractor,t1,B,25,0,0,0,0,24,0,24,0,0,15,15,15,,,,,2018_Oct_03_1105,59.9922488866,test_experiment,001,1,
,,,,,,0,0,0,0,24,0,24,0,,,,,6,0.466733811598,6,0.234416446023,2018_Oct_03_1105,59.9922488866,test_experiment,001,1,
1,short,distractor,t2,O,26,0,0,0,0,25,0,25,0,0,0,0,0,,,,,2018_Oct_03_1105,59.9922488866,test_experiment,001,1,
2,short,distractor,t2,I,26,0,0,0,0,25,0,25,0,0,1,1,1,,,,,2018_Oct_03_1105,59.9922488866,test_experiment,001,1,
3,short,target,t2,1,26,0,0,0,0,25,0,25,0,0,2,2,2,,,,,2018_Oct_03_1105,59.9922488866,test_experiment,001,1,
4,short,distractor,t2,D,26,0,0,0,0,25,0,25,0,0,3,3,3,,,,,2018_Oct_03_1105,59.9922488866,test_experiment,001,1,
5,short,distractor,t2,U,26,0,0,0,0,25,0,25,0,0,4,4,4,,,,,2018_Oct_03_1105,59.9922488866,test_experiment,001,1,
6,short,distractor,t2,X,26,0,0,0,0,25,0,25,0,0,5,5,5,,,,,2018_Oct_03_1105,59.9922488866,test_experiment,001,1,
7,short,target,t2,3,26,0,0,0,0,25,0,25,0,0,6,6,6,,,,,2018_Oct_03_1105,59.9922488866,test_experiment,001,1,
8,short,distractor,t2,D,26,0,0,0,0,25,0,25,0,0,7,7,7,,,,,2018_Oct_03_1105,59.9922488866,test_experiment,001,1,
9,short,distractor,t2,V,26,0,0,0,0,25,0,25,0,0,8,8,8,,,,,2018_Oct_03_1105,59.9922488866,test_experiment,001,1,
10,short,distractor,t2,D,26,0,0,0,0,25,0,25,0,0,9,9,9,,,,,2018_Oct_03_1105,59.9922488866,test_experiment,001,1,
11,short,distractor,t2,T,26,0,0,0,0,25,0,25,0,0,10,10,10,,,,,2018_Oct_03_1105,59.9922488866,test_experiment,001,1,
12,short,distractor,t2,L,26,0,0,0,0,25,0,25,0,0,11,11,11,,,,,2018_Oct_03_1105,59.9922488866,test_experiment,001,1,
13,short,distractor,t2,W,26,0,0,0,0,25,0,25,0,0,12,12,12,,,,,2018_Oct_03_1105,59.9922488866,test_experiment,001,1,
14,short,distractor,t2,Y,26,0,0,0,0,25,0,25,0,0,13,13,13,,,,,2018_Oct_03_1105,59.9922488866,test_experiment,001,1,
15,short,distractor,t2,Z,26,0,0,0,0,25,0,25,0,0,14,14,14,,,,,2018_Oct_03_1105,59.9922488866,test_experiment,001,1,
16,short,distractor,t2,E,26,0,0,0,0,25,0,25,0,0,15,15,15,,,,,2018_Oct_03_1105,59.9922488866,test_experiment,001,1,
,,,,,,0,0,0,0,25,0,25,0,,,,,6,0.300322043287,6,0.184993107221,2018_Oct_03_1105,59.9922488866,test_experiment,001,1,
1,short,distractor,t2,B,27,0,0,0,0,26,0,26,0,0,0,0,0,,,,,2018_Oct_03_1105,59.9922488866,test_experiment,001,1,
2,short,distractor,t2,U,27,0,0,0,0,26,0,26,0,0,1,1,1,,,,,2018_Oct_03_1105,59.9922488866,test_experiment,001,1,
3,short,distractor,t2,D,27,0,0,0,0,26,0,26,0,0,2,2,2,,,,,2018_Oct_03_1105,59.9922488866,test_experiment,001,1,
4,short,distractor,t2,S,27,0,0,0,0,26,0,26,0,0,3,3,3,,,,,2018_Oct_03_1105,59.9922488866,test_experiment,001,1,
5,short,distractor,t2,M,27,0,0,0,0,26,0,26,0,0,4,4,4,,,,,2018_Oct_03_1105,59.9922488866,test_experiment,001,1,
6,short,distractor,t2,N,27,0,0,0,0,26,0,26,0,0,5,5,5,,,,,2018_Oct_03_1105,59.9922488866,test_experiment,001,1,
7,short,target,t2,4,27,0,0,0,0,26,0,26,0,0,6,6,6,,,,,2018_Oct_03_1105,59.9922488866,test_experiment,001,1,
8,short,distractor,t2,D,27,0,0,0,0,26,0,26,0,0,7,7,7,,,,,2018_Oct_03_1105,59.9922488866,test_experiment,001,1,
9,short,distractor,t2,D,27,0,0,0,0,26,0,26,0,0,8,8,8,,,,,2018_Oct_03_1105,59.9922488866,test_experiment,001,1,
10,short,distractor,t2,P,27,0,0,0,0,26,0,26,0,0,9,9,9,,,,,2018_Oct_03_1105,59.9922488866,test_experiment,001,1,
11,short,target,t2,2,27,0,0,0,0,26,0,26,0,0,10,10,10,,,,,2018_Oct_03_1105,59.9922488866,test_experiment,001,1,
12,short,distractor,t2,R,27,0,0,0,0,26,0,26,0,0,11,11,11,,,,,2018_Oct_03_1105,59.9922488866,test_experiment,001,1,
13,short,distractor,t2,N,27,0,0,0,0,26,0,26,0,0,12,12,12,,,,,2018_Oct_03_1105,59.9922488866,test_experiment,001,1,
14,short,distractor,t2,R,27,0,0,0,0,26,0,26,0,0,13,13,13,,,,,2018_Oct_03_1105,59.9922488866,test_experiment,001,1,
15,short,distractor,t2,C,27,0,0,0,0,26,0,26,0,0,14,14,14,,,,,2018_Oct_03_1105,59.9922488866,test_experiment,001,1,
16,short,distractor,t2,U,27,0,0,0,0,26,0,26,0,0,15,15,15,,,,,2018_Oct_03_1105,59.9922488866,test_experiment,001,1,
17,short,distractor,t2,T,27,0,0,0,0,26,0,26,0,0,16,16,16,,,,,2018_Oct_03_1105,59.9922488866,test_experiment,001,1,
18,short,distractor,t2,J,27,0,0,0,0,26,0,26,0,0,17,17,17,,,,,2018_Oct_03_1105,59.9922488866,test_experiment,001,1,
,,,,,,0,0,0,0,26,0,26,0,,,,,6,0.334501058256,6,0.200997919543,2018_Oct_03_1105,59.9922488866,test_experiment,001,1,
1,short,distractor,t1,N,28,0,0,0,0,27,0,27,0,0,0,0,0,,,,,2018_Oct_03_1105,59.9922488866,test_experiment,001,1,
2,short,target,t1,8,28,0,0,0,0,27,0,27,0,0,1,1,1,,,,,2018_Oct_03_1105,59.9922488866,test_experiment,001,1,
3,short,distractor,t1,R,28,0,0,0,0,27,0,27,0,0,2,2,2,,,,,2018_Oct_03_1105,59.9922488866,test_experiment,001,1,
4,short,distractor,t1,S,28,0,0,0,0,27,0,27,0,0,3,3,3,,,,,2018_Oct_03_1105,59.9922488866,test_experiment,001,1,
5,short,distractor,t1,N,28,0,0,0,0,27,0,27,0,0,4,4,4,,,,,2018_Oct_03_1105,59.9922488866,test_experiment,001,1,
6,short,mask,t1, ,28,0,0,0,0,27,0,27,0,0,5,5,5,,,,,2018_Oct_03_1105,59.9922488866,test_experiment,001,1,
7,short,distractor,t1,C,28,0,0,0,0,27,0,27,0,0,6,6,6,,,,,2018_Oct_03_1105,59.9922488866,test_experiment,001,1,
8,short,distractor,t1,R,28,0,0,0,0,27,0,27,0,0,7,7,7,,,,,2018_Oct_03_1105,59.9922488866,test_experiment,001,1,
9,short,distractor,t1,L,28,0,0,0,0,27,0,27,0,0,8,8,8,,,,,2018_Oct_03_1105,59.9922488866,test_experiment,001,1,
10,short,distractor,t1,T,28,0,0,0,0,27,0,27,0,0,9,9,9,,,,,2018_Oct_03_1105,59.9922488866,test_experiment,001,1,
11,short,distractor,t1,G,28,0,0,0,0,27,0,27,0,0,10,10,10,,,,,2018_Oct_03_1105,59.9922488866,test_experiment,001,1,
12,short,distractor,t1,N,28,0,0,0,0,27,0,27,0,0,11,11,11,,,,,2018_Oct_03_1105,59.9922488866,test_experiment,001,1,
13,short,distractor,t1,J,28,0,0,0,0,27,0,27,0,0,12,12,12,,,,,2018_Oct_03_1105,59.9922488866,test_experiment,001,1,
14,short,distractor,t1,G,28,0,0,0,0,27,0,27,0,0,13,13,13,,,,,2018_Oct_03_1105,59.9922488866,test_experiment,001,1,
15,short,distractor,t1,O,28,0,0,0,0,27,0,27,0,0,14,14,14,,,,,2018_Oct_03_1105,59.9922488866,test_experiment,001,1,
16,short,distractor,t1,U,28,0,0,0,0,27,0,27,0,0,15,15,15,,,,,2018_Oct_03_1105,59.9922488866,test_experiment,001,1,
,,,,,,0,0,0,0,27,0,27,0,,,,,6,0.634298181205,6,0.234371976519,2018_Oct_03_1105,59.9922488866,test_experiment,001,1,
1,short,distractor,t1,Z,29,0,0,0,0,28,0,28,0,0,0,0,0,,,,,2018_Oct_03_1105,59.9922488866,test_experiment,001,1,
2,short,distractor,t1,W,29,0,0,0,0,28,0,28,0,0,1,1,1,,,,,2018_Oct_03_1105,59.9922488866,test_experiment,001,1,
3,short,distractor,t1,Z,29,0,0,0,0,28,0,28,0,0,2,2,2,,,,,2018_Oct_03_1105,59.9922488866,test_experiment,001,1,
4,short,target,t1,2,29,0,0,0,0,28,0,28,0,0,3,3,3,,,,,2018_Oct_03_1105,59.9922488866,test_experiment,001,1,
5,short,distractor,t1,A,29,0,0,0,0,28,0,28,0,0,4,4,4,,,,,2018_Oct_03_1105,59.9922488866,test_experiment,001,1,
6,short,distractor,t1,Y,29,0,0,0,0,28,0,28,0,0,5,5,5,,,,,2018_Oct_03_1105,59.9922488866,test_experiment,001,1,
7,short,distractor,t1,H,29,0,0,0,0,28,0,28,0,0,6,6,6,,,,,2018_Oct_03_1105,59.9922488866,test_experiment,001,1,
8,short,mask,t1, ,29,0,0,0,0,28,0,28,0,0,7,7,7,,,,,2018_Oct_03_1105,59.9922488866,test_experiment,001,1,
9,short,distractor,t1,N,29,0,0,0,0,28,0,28,0,0,8,8,8,,,,,2018_Oct_03_1105,59.9922488866,test_experiment,001,1,
10,short,distractor,t1,N,29,0,0,0,0,28,0,28,0,0,9,9,9,,,,,2018_Oct_03_1105,59.9922488866,test_experiment,001,1,
11,short,distractor,t1,D,29,0,0,0,0,28,0,28,0,0,10,10,10,,,,,2018_Oct_03_1105,59.9922488866,test_experiment,001,1,
12,short,distractor,t1,U,29,0,0,0,0,28,0,28,0,0,11,11,11,,,,,2018_Oct_03_1105,59.9922488866,test_experiment,001,1,
13,short,distractor,t1,A,29,0,0,0,0,28,0,28,0,0,12,12,12,,,,,2018_Oct_03_1105,59.9922488866,test_experiment,001,1,
14,short,distractor,t1,S,29,0,0,0,0,28,0,28,0,0,13,13,13,,,,,2018_Oct_03_1105,59.9922488866,test_experiment,001,1,
15,short,distractor,t1,S,29,0,0,0,0,28,0,28,0,0,14,14,14,,,,,2018_Oct_03_1105,59.9922488866,test_experiment,001,1,
16,short,distractor,t1,X,29,0,0,0,0,28,0,28,0,0,15,15,15,,,,,2018_Oct_03_1105,59.9922488866,test_experiment,001,1,
,,,,,,0,0,0,0,28,0,28,0,,,,,6,1.41662720499,6,0.21809704206,2018_Oct_03_1105,59.9922488866,test_experiment,001,1,
1,short,distractor,t1,U,30,0,0,0,0,29,0,29,0,0,0,0,0,,,,,2018_Oct_03_1105,59.9922488866,test_experiment,001,1,
2,short,distractor,t1,L,30,0,0,0,0,29,0,29,0,0,1,1,1,,,,,2018_Oct_03_1105,59.9922488866,test_experiment,001,1,
3,short,distractor,t1,Z,30,0,0,0,0,29,0,29,0,0,2,2,2,,,,,2018_Oct_03_1105,59.9922488866,test_experiment,001,1,
4,short,distractor,t1,D,30,0,0,0,0,29,0,29,0,0,3,3,3,,,,,2018_Oct_03_1105,59.9922488866,test_experiment,001,1,
5,short,distractor,t1,G,30,0,0,0,0,29,0,29,0,0,4,4,4,,,,,2018_Oct_03_1105,59.9922488866,test_experiment,001,1,
6,short,distractor,t1,K,30,0,0,0,0,29,0,29,0,0,5,5,5,,,,,2018_Oct_03_1105,59.9922488866,test_experiment,001,1,
7,short,distractor,t1,C,30,0,0,0,0,29,0,29,0,0,6,6,6,,,,,2018_Oct_03_1105,59.9922488866,test_experiment,001,1,
8,short,distractor,t1,D,30,0,0,0,0,29,0,29,0,0,7,7,7,,,,,2018_Oct_03_1105,59.9922488866,test_experiment,001,1,
9,short,distractor,t1,F,30,0,0,0,0,29,0,29,0,0,8,8,8,,,,,2018_Oct_03_1105,59.9922488866,test_experiment,001,1,
10,short,target,t1,2,30,0,0,0,0,29,0,29,0,0,9,9,9,,,,,2018_Oct_03_1105,59.9922488866,test_experiment,001,1,
11,short,distractor,t1,E,30,0,0,0,0,29,0,29,0,0,10,10,10,,,,,2018_Oct_03_1105,59.9922488866,test_experiment,001,1,
12,short,distractor,t1,Z,30,0,0,0,0,29,0,29,0,0,11,11,11,,,,,2018_Oct_03_1105,59.9922488866,test_experiment,001,1,
13,short,distractor,t1,Z,30,0,0,0,0,29,0,29,0,0,12,12,12,,,,,2018_Oct_03_1105,59.9922488866,test_experiment,001,1,
14,short,mask,t1, ,30,0,0,0,0,29,0,29,0,0,13,13,13,,,,,2018_Oct_03_1105,59.9922488866,test_experiment,001,1,
15,short,distractor,t1,Z,30,0,0,0,0,29,0,29,0,0,14,14,14,,,,,2018_Oct_03_1105,59.9922488866,test_experiment,001,1,
,,,,,,0,0,0,0,29,0,29,0,,,,,6,2.06792865891,6,0.200958257556,2018_Oct_03_1105,59.9922488866,test_experiment,001,1,
1,long,distractor,t2,O,31,0,0,0,0,30,0,30,0,0,0,0,0,,,,,2018_Oct_03_1105,59.9922488866,test_experiment,001,1,
2,long,distractor,t2,C,31,0,0,0,0,30,0,30,0,0,1,1,1,,,,,2018_Oct_03_1105,59.9922488866,test_experiment,001,1,
3,long,distractor,t2,X,31,0,0,0,0,30,0,30,0,0,2,2,2,,,,,2018_Oct_03_1105,59.9922488866,test_experiment,001,1,
4,long,distractor,t2,U,31,0,0,0,0,30,0,30,0,0,3,3,3,,,,,2018_Oct_03_1105,59.9922488866,test_experiment,001,1,
5,long,distractor,t2,K,31,0,0,0,0,30,0,30,0,0,4,4,4,,,,,2018_Oct_03_1105,59.9922488866,test_experiment,001,1,
6,long,distractor,t2,W,31,0,0,0,0,30,0,30,0,0,5,5,5,,,,,2018_Oct_03_1105,59.9922488866,test_experiment,001,1,
7,long,target,t2,4,31,0,0,0,0,30,0,30,0,0,6,6,6,,,,,2018_Oct_03_1105,59.9922488866,test_experiment,001,1,
8,long,distractor,t2,D,31,0,0,0,0,30,0,30,0,0,7,7,7,,,,,2018_Oct_03_1105,59.9922488866,test_experiment,001,1,
9,long,distractor,t2,H,31,0,0,0,0,30,0,30,0,0,8,8,8,,,,,2018_Oct_03_1105,59.9922488866,test_experiment,001,1,
10,long,distractor,t2,F,31,0,0,0,0,30,0,30,0,0,9,9,9,,,,,2018_Oct_03_1105,59.9922488866,test_experiment,001,1,
11,long,distractor,t2,J,31,0,0,0,0,30,0,30,0,0,10,10,10,,,,,2018_Oct_03_1105,59.9922488866,test_experiment,001,1,
12,long,distractor,t2,N,31,0,0,0,0,30,0,30,0,0,11,11,11,,,,,2018_Oct_03_1105,59.9922488866,test_experiment,001,1,
13,long,distractor,t2,K,31,0,0,0,0,30,0,30,0,0,12,12,12,,,,,2018_Oct_03_1105,59.9922488866,test_experiment,001,1,
14,long,distractor,t2,S,31,0,0,0,0,30,0,30,0,0,13,13,13,,,,,2018_Oct_03_1105,59.9922488866,test_experiment,001,1,
15,long,target,t2,4,31,0,0,0,0,30,0,30,0,0,14,14,14,,,,,2018_Oct_03_1105,59.9922488866,test_experiment,001,1,
16,long,distractor,t2,C,31,0,0,0,0,30,0,30,0,0,15,15,15,,,,,2018_Oct_03_1105,59.9922488866,test_experiment,001,1,
17,long,distractor,t2,W,31,0,0,0,0,30,0,30,0,0,16,16,16,,,,,2018_Oct_03_1105,59.9922488866,test_experiment,001,1,
,,,,,,0,0,0,0,30,0,30,0,,,,,6,0.284899240534,6,0.217411070014,2018_Oct_03_1105,59.9922488866,test_experiment,001,1,
1,short,distractor,t1,H,32,0,0,0,0,31,0,31,0,0,0,0,0,,,,,2018_Oct_03_1105,59.9922488866,test_experiment,001,1,
2,short,distractor,t1,Q,32,0,0,0,0,31,0,31,0,0,1,1,1,,,,,2018_Oct_03_1105,59.9922488866,test_experiment,001,1,
3,short,distractor,t1,M,32,0,0,0,0,31,0,31,0,0,2,2,2,,,,,2018_Oct_03_1105,59.9922488866,test_experiment,001,1,
4,short,distractor,t1,E,32,0,0,0,0,31,0,31,0,0,3,3,3,,,,,2018_Oct_03_1105,59.9922488866,test_experiment,001,1,
5,short,distractor,t1,W,32,0,0,0,0,31,0,31,0,0,4,4,4,,,,,2018_Oct_03_1105,59.9922488866,test_experiment,001,1,
6,short,distractor,t1,G,32,0,0,0,0,31,0,31,0,0,5,5,5,,,,,2018_Oct_03_1105,59.9922488866,test_experiment,001,1,
7,short,distractor,t1,G,32,0,0,0,0,31,0,31,0,0,6,6,6,,,,,2018_Oct_03_1105,59.9922488866,test_experiment,001,1,
8,short,target,t1,4,32,0,0,0,0,31,0,31,0,0,7,7,7,,,,,2018_Oct_03_1105,59.9922488866,test_experiment,001,1,
9,short,distractor,t1,N,32,0,0,0,0,31,0,31,0,0,8,8,8,,,,,2018_Oct_03_1105,59.9922488866,test_experiment,001,1,
10,short,distractor,t1,Y,32,0,0,0,0,31,0,31,0,0,9,9,9,,,,,2018_Oct_03_1105,59.9922488866,test_experiment,001,1,
11,short,distractor,t1,Q,32,0,0,0,0,31,0,31,0,0,10,10,10,,,,,2018_Oct_03_1105,59.9922488866,test_experiment,001,1,
12,short,mask,t1, ,32,0,0,0,0,31,0,31,0,0,11,11,11,,,,,2018_Oct_03_1105,59.9922488866,test_experiment,001,1,
13,short,distractor,t1,Y,32,0,0,0,0,31,0,31,0,0,12,12,12,,,,,2018_Oct_03_1105,59.9922488866,test_experiment,001,1,
14,short,distractor,t1,U,32,0,0,0,0,31,0,31,0,0,13,13,13,,,,,2018_Oct_03_1105,59.9922488866,test_experiment,001,1,
15,short,distractor,t1,W,32,0,0,0,0,31,0,31,0,0,14,14,14,,,,,2018_Oct_03_1105,59.9922488866,test_experiment,001,1,
16,short,distractor,t1,O,32,0,0,0,0,31,0,31,0,0,15,15,15,,,,,2018_Oct_03_1105,59.9922488866,test_experiment,001,1,
,,,,,,0,0,0,0,31,0,31,0,,,,,6,0.850772687554,6,0.201054708305,2018_Oct_03_1105,59.9922488866,test_experiment,001,1,
1,long,target,t2,6,33,0,0,0,0,32,0,32,0,0,0,0,0,,,,,2018_Oct_03_1105,59.9922488866,test_experiment,001,1,
2,long,distractor,t2,U,33,0,0,0,0,32,0,32,0,0,1,1,1,,,,,2018_Oct_03_1105,59.9922488866,test_experiment,001,1,
3,long,distractor,t2,H,33,0,0,0,0,32,0,32,0,0,2,2,2,,,,,2018_Oct_03_1105,59.9922488866,test_experiment,001,1,
4,long,distractor,t2,E,33,0,0,0,0,32,0,32,0,0,3,3,3,,,,,2018_Oct_03_1105,59.9922488866,test_experiment,001,1,
5,long,distractor,t2,I,33,0,0,0,0,32,0,32,0,0,4,4,4,,,,,2018_Oct_03_1105,59.9922488866,test_experiment,001,1,
6,long,distractor,t2,V,33,0,0,0,0,32,0,32,0,0,5,5,5,,,,,2018_Oct_03_1105,59.9922488866,test_experiment,001,1,
7,long,distractor,t2,W,33,0,0,0,0,32,0,32,0,0,6,6,6,,,,,2018_Oct_03_1105,59.9922488866,test_experiment,001,1,
8,long,distractor,t2,D,33,0,0,0,0,32,0,32,0,0,7,7,7,,,,,2018_Oct_03_1105,59.9922488866,test_experiment,001,1,
9,long,target,t2,5,33,0,0,0,0,32,0,32,0,0,8,8,8,,,,,2018_Oct_03_1105,59.9922488866,test_experiment,001,1,
10,long,distractor,t2,P,33,0,0,0,0,32,0,32,0,0,9,9,9,,,,,2018_Oct_03_1105,59.9922488866,test_experiment,001,1,
11,long,distractor,t2,N,33,0,0,0,0,32,0,32,0,0,10,10,10,,,,,2018_Oct_03_1105,59.9922488866,test_experiment,001,1,
12,long,distractor,t2,N,33,0,0,0,0,32,0,32,0,0,11,11,11,,,,,2018_Oct_03_1105,59.9922488866,test_experiment,001,1,
13,long,distractor,t2,Y,33,0,0,0,0,32,0,32,0,0,12,12,12,,,,,2018_Oct_03_1105,59.9922488866,test_experiment,001,1,
14,long,distractor,t2,D,33,0,0,0,0,32,0,32,0,0,13,13,13,,,,,2018_Oct_03_1105,59.9922488866,test_experiment,001,1,
15,long,distractor,t2,C,33,0,0,0,0,32,0,32,0,0,14,14,14,,,,,2018_Oct_03_1105,59.9922488866,test_experiment,001,1,
16,long,distractor,t2,V,33,0,0,0,0,32,0,32,0,0,15,15,15,,,,,2018_Oct_03_1105,59.9922488866,test_experiment,001,1,
17,long,mask,t2, ,33,0,0,0,0,32,0,32,0,0,16,16,16,,,,,2018_Oct_03_1105,59.9922488866,test_experiment,001,1,
18,long,distractor,t2,K,33,0,0,0,0,32,0,32,0,0,17,17,17,,,,,2018_Oct_03_1105,59.9922488866,test_experiment,001,1,
,,,,,,0,0,0,0,32,0,32,0,,,,,6,0.3510881806,6,0.201419478355,2018_Oct_03_1105,59.9922488866,test_experiment,001,1,
1,short,mask,t2, ,34,0,0,0,0,33,0,33,0,0,0,0,0,,,,,2018_Oct_03_1105,59.9922488866,test_experiment,001,1,
2,short,distractor,t2,Y,34,0,0,0,0,33,0,33,0,0,1,1,1,,,,,2018_Oct_03_1105,59.9922488866,test_experiment,001,1,
3,short,distractor,t2,P,34,0,0,0,0,33,0,33,0,0,2,2,2,,,,,2018_Oct_03_1105,59.9922488866,test_experiment,001,1,
4,short,target,t2,5,34,0,0,0,0,33,0,33,0,0,3,3,3,,,,,2018_Oct_03_1105,59.9922488866,test_experiment,001,1,
5,short,distractor,t2,H,34,0,0,0,0,33,0,33,0,0,4,4,4,,,,,2018_Oct_03_1105,59.9922488866,test_experiment,001,1,
6,short,distractor,t2,H,34,0,0,0,0,33,0,33,0,0,5,5,5,,,,,2018_Oct_03_1105,59.9922488866,test_experiment,001,1,
7,short,distractor,t2,Z,34,0,0,0,0,33,0,33,0,0,6,6,6,,,,,2018_Oct_03_1105,59.9922488866,test_experiment,001,1,
8,short,target,t2,7,34,0,0,0,0,33,0,33,0,0,7,7,7,,,,,2018_Oct_03_1105,59.9922488866,test_experiment,001,1,
9,short,distractor,t2,P,34,0,0,0,0,33,0,33,0,0,8,8,8,,,,,2018_Oct_03_1105,59.9922488866,test_experiment,001,1,
10,short,distractor,t2,L,34,0,0,0,0,33,0,33,0,0,9,9,9,,,,,2018_Oct_03_1105,59.9922488866,test_experiment,001,1,
11,short,distractor,t2,L,34,0,0,0,0,33,0,33,0,0,10,10,10,,,,,2018_Oct_03_1105,59.9922488866,test_experiment,001,1,
12,short,distractor,t2,Y,34,0,0,0,0,33,0,33,0,0,11,11,11,,,,,2018_Oct_03_1105,59.9922488866,test_experiment,001,1,
13,short,distractor,t2,D,34,0,0,0,0,33,0,33,0,0,12,12,12,,,,,2018_Oct_03_1105,59.9922488866,test_experiment,001,1,
14,short,distractor,t2,J,34,0,0,0,0,33,0,33,0,0,13,13,13,,,,,2018_Oct_03_1105,59.9922488866,test_experiment,001,1,
15,short,distractor,t2,P,34,0,0,0,0,33,0,33,0,0,14,14,14,,,,,2018_Oct_03_1105,59.9922488866,test_experiment,001,1,
,,,,,,0,0,0,0,33,0,33,0,,,,,6,0.303738081886,6,0.23299552541,2018_Oct_03_1105,59.9922488866,test_experiment,001,1,
1,short,distractor,t1,Q,35,0,0,0,0,34,0,34,0,0,0,0,0,,,,,2018_Oct_03_1105,59.9922488866,test_experiment,001,1,
2,short,distractor,t1,T,35,0,0,0,0,34,0,34,0,0,1,1,1,,,,,2018_Oct_03_1105,59.9922488866,test_experiment,001,1,
3,short,distractor,t1,B,35,0,0,0,0,34,0,34,0,0,2,2,2,,,,,2018_Oct_03_1105,59.9922488866,test_experiment,001,1,
4,short,distractor,t1,N,35,0,0,0,0,34,0,34,0,0,3,3,3,,,,,2018_Oct_03_1105,59.9922488866,test_experiment,001,1,
5,short,distractor,t1,G,35,0,0,0,0,34,0,34,0,0,4,4,4,,,,,2018_Oct_03_1105,59.9922488866,test_experiment,001,1,
6,short,target,t1,5,35,0,0,0,0,34,0,34,0,0,5,5,5,,,,,2018_Oct_03_1105,59.9922488866,test_experiment,001,1,
7,short,distractor,t1,R,35,0,0,0,0,34,0,34,0,0,6,6,6,,,,,2018_Oct_03_1105,59.9922488866,test_experiment,001,1,
8,short,distractor,t1,G,35,0,0,0,0,34,0,34,0,0,7,7,7,,,,,2018_Oct_03_1105,59.9922488866,test_experiment,001,1,
9,short,distractor,t1,V,35,0,0,0,0,34,0,34,0,0,8,8,8,,,,,2018_Oct_03_1105,59.9922488866,test_experiment,001,1,
10,short,mask,t1, ,35,0,0,0,0,34,0,34,0,0,9,9,9,,,,,2018_Oct_03_1105,59.9922488866,test_experiment,001,1,
11,short,distractor,t1,P,35,0,0,0,0,34,0,34,0,0,10,10,10,,,,,2018_Oct_03_1105,59.9922488866,test_experiment,001,1,
12,short,distractor,t1,O,35,0,0,0,0,34,0,34,0,0,11,11,11,,,,,2018_Oct_03_1105,59.9922488866,test_experiment,001,1,
13,short,distractor,t1,E,35,0,0,0,0,34,0,34,0,0,12,12,12,,,,,2018_Oct_03_1105,59.9922488866,test_experiment,001,1,
14,short,distractor,t1,E,35,0,0,0,0,34,0,34,0,0,13,13,13,,,,,2018_Oct_03_1105,59.9922488866,test_experiment,001,1,
15,short,distractor,t1,C,35,0,0,0,0,34,0,34,0,0,14,14,14,,,,,2018_Oct_03_1105,59.9922488866,test_experiment,001,1,
16,short,distractor,t1,D,35,0,0,0,0,34,0,34,0,0,15,15,15,,,,,2018_Oct_03_1105,59.9922488866,test_experiment,001,1,
,,,,,,0,0,0,0,34,0,34,0,,,,,6,0.316084076199,6,0.284546789728,2018_Oct_03_1105,59.9922488866,test_experiment,001,1,
1,short,distractor,t1,K,36,0,0,0,0,35,0,35,0,0,0,0,0,,,,,2018_Oct_03_1105,59.9922488866,test_experiment,001,1,
2,short,distractor,t1,P,36,0,0,0,0,35,0,35,0,0,1,1,1,,,,,2018_Oct_03_1105,59.9922488866,test_experiment,001,1,
3,short,distractor,t1,Z,36,0,0,0,0,35,0,35,0,0,2,2,2,,,,,2018_Oct_03_1105,59.9922488866,test_experiment,001,1,
4,short,target,t1,1,36,0,0,0,0,35,0,35,0,0,3,3,3,,,,,2018_Oct_03_1105,59.9922488866,test_experiment,001,1,
5,short,distractor,t1,Q,36,0,0,0,0,35,0,35,0,0,4,4,4,,,,,2018_Oct_03_1105,59.9922488866,test_experiment,001,1,
6,short,distractor,t1,S,36,0,0,0,0,35,0,35,0,0,5,5,5,,,,,2018_Oct_03_1105,59.9922488866,test_experiment,001,1,
7,short,distractor,t1,Z,36,0,0,0,0,35,0,35,0,0,6,6,6,,,,,2018_Oct_03_1105,59.9922488866,test_experiment,001,1,
8,short,mask,t1, ,36,0,0,0,0,35,0,35,0,0,7,7,7,,,,,2018_Oct_03_1105,59.9922488866,test_experiment,001,1,
9,short,distractor,t1,O,36,0,0,0,0,35,0,35,0,0,8,8,8,,,,,2018_Oct_03_1105,59.9922488866,test_experiment,001,1,
10,short,distractor,t1,Q,36,0,0,0,0,35,0,35,0,0,9,9,9,,,,,2018_Oct_03_1105,59.9922488866,test_experiment,001,1,
11,short,distractor,t1,Q,36,0,0,0,0,35,0,35,0,0,10,10,10,,,,,2018_Oct_03_1105,59.9922488866,test_experiment,001,1,
12,short,distractor,t1,M,36,0,0,0,0,35,0,35,0,0,11,11,11,,,,,2018_Oct_03_1105,59.9922488866,test_experiment,001,1,
13,short,distractor,t1,D,36,0,0,0,0,35,0,35,0,0,12,12,12,,,,,2018_Oct_03_1105,59.9922488866,test_experiment,001,1,
14,short,distractor,t1,J,36,0,0,0,0,35,0,35,0,0,13,13,13,,,,,2018_Oct_03_1105,59.9922488866,test_experiment,001,1,
15,short,distractor,t1,O,36,0,0,0,0,35,0,35,0,0,14,14,14,,,,,2018_Oct_03_1105,59.9922488866,test_experiment,001,1,
16,short,distractor,t1,T,36,0,0,0,0,35,0,35,0,0,15,15,15,,,,,2018_Oct_03_1105,59.9922488866,test_experiment,001,1,
17,short,distractor,t1,T,36,0,0,0,0,35,0,35,0,0,16,16,16,,,,,2018_Oct_03_1105,59.9922488866,test_experiment,001,1,
,,,,,,0,0,0,0,35,0,35,0,,,,,6,0.46689906987,6,0.267789601596,2018_Oct_03_1105,59.9922488866,test_experiment,001,1,
1,short,distractor,t2,Y,37,0,0,0,0,36,0,36,0,0,0,0,0,,,,,2018_Oct_03_1105,59.9922488866,test_experiment,001,1,
2,short,target,t2,3,37,0,0,0,0,36,0,36,0,0,1,1,1,,,,,2018_Oct_03_1105,59.9922488866,test_experiment,001,1,
3,short,distractor,t2,W,37,0,0,0,0,36,0,36,0,0,2,2,2,,,,,2018_Oct_03_1105,59.9922488866,test_experiment,001,1,
4,short,distractor,t2,K,37,0,0,0,0,36,0,36,0,0,3,3,3,,,,,2018_Oct_03_1105,59.9922488866,test_experiment,001,1,
5,short,mask,t2, ,37,0,0,0,0,36,0,36,0,0,4,4,4,,,,,2018_Oct_03_1105,59.9922488866,test_experiment,001,1,
6,short,target,t2,4,37,0,0,0,0,36,0,36,0,0,5,5,5,,,,,2018_Oct_03_1105,59.9922488866,test_experiment,001,1,
7,short,distractor,t2,A,37,0,0,0,0,36,0,36,0,0,6,6,6,,,,,2018_Oct_03_1105,59.9922488866,test_experiment,001,1,
8,short,distractor,t2,L,37,0,0,0,0,36,0,36,0,0,7,7,7,,,,,2018_Oct_03_1105,59.9922488866,test_experiment,001,1,
9,short,distractor,t2,I,37,0,0,0,0,36,0,36,0,0,8,8,8,,,,,2018_Oct_03_1105,59.9922488866,test_experiment,001,1,
10,short,distractor,t2,I,37,0,0,0,0,36,0,36,0,0,9,9,9,,,,,2018_Oct_03_1105,59.9922488866,test_experiment,001,1,
11,short,distractor,t2,E,37,0,0,0,0,36,0,36,0,0,10,10,10,,,,,2018_Oct_03_1105,59.9922488866,test_experiment,001,1,
12,short,distractor,t2,L,37,0,0,0,0,36,0,36,0,0,11,11,11,,,,,2018_Oct_03_1105,59.9922488866,test_experiment,001,1,
13,short,distractor,t2,M,37,0,0,0,0,36,0,36,0,0,12,12,12,,,,,2018_Oct_03_1105,59.9922488866,test_experiment,001,1,
14,short,distractor,t2,J,37,0,0,0,0,36,0,36,0,0,13,13,13,,,,,2018_Oct_03_1105,59.9922488866,test_experiment,001,1,
15,short,distractor,t2,J,37,0,0,0,0,36,0,36,0,0,14,14,14,,,,,2018_Oct_03_1105,59.9922488866,test_experiment,001,1,
16,short,distractor,t2,U,37,0,0,0,0,36,0,36,0,0,15,15,15,,,,,2018_Oct_03_1105,59.9922488866,test_experiment,001,1,
,,,,,,0,0,0,0,36,0,36,0,,,,,6,0.317759795013,6,0.218294751045,2018_Oct_03_1105,59.9922488866,test_experiment,001,1,
1,short,distractor,t1,H,38,0,0,0,0,37,0,37,0,0,0,0,0,,,,,2018_Oct_03_1105,59.9922488866,test_experiment,001,1,
2,short,distractor,t1,N,38,0,0,0,0,37,0,37,0,0,1,1,1,,,,,2018_Oct_03_1105,59.9922488866,test_experiment,001,1,
3,short,distractor,t1,L,38,0,0,0,0,37,0,37,0,0,2,2,2,,,,,2018_Oct_03_1105,59.9922488866,test_experiment,001,1,
4,short,distractor,t1,V,38,0,0,0,0,37,0,37,0,0,3,3,3,,,,,2018_Oct_03_1105,59.9922488866,test_experiment,001,1,
5,short,distractor,t1,C,38,0,0,0,0,37,0,37,0,0,4,4,4,,,,,2018_Oct_03_1105,59.9922488866,test_experiment,001,1,
6,short,distractor,t1,W,38,0,0,0,0,37,0,37,0,0,5,5,5,,,,,2018_Oct_03_1105,59.9922488866,test_experiment,001,1,
7,short,distractor,t1,Q,38,0,0,0,0,37,0,37,0,0,6,6,6,,,,,2018_Oct_03_1105,59.9922488866,test_experiment,001,1,
8,short,target,t1,5,38,0,0,0,0,37,0,37,0,0,7,7,7,,,,,2018_Oct_03_1105,59.9922488866,test_experiment,001,1,
9,short,distractor,t1,O,38,0,0,0,0,37,0,37,0,0,8,8,8,,,,,2018_Oct_03_1105,59.9922488866,test_experiment,001,1,
10,short,distractor,t1,M,38,0,0,0,0,37,0,37,0,0,9,9,9,,,,,2018_Oct_03_1105,59.9922488866,test_experiment,001,1,
11,short,distractor,t1,Q,38,0,0,0,0,37,0,37,0,0,10,10,10,,,,,2018_Oct_03_1105,59.9922488866,test_experiment,001,1,
12,short,mask,t1, ,38,0,0,0,0,37,0,37,0,0,11,11,11,,,,,2018_Oct_03_1105,59.9922488866,test_experiment,001,1,
13,short,distractor,t1,A,38,0,0,0,0,37,0,37,0,0,12,12,12,,,,,2018_Oct_03_1105,59.9922488866,test_experiment,001,1,
14,short,distractor,t1,T,38,0,0,0,0,37,0,37,0,0,13,13,13,,,,,2018_Oct_03_1105,59.9922488866,test_experiment,001,1,
15,short,distractor,t1,S,38,0,0,0,0,37,0,37,0,0,14,14,14,,,,,2018_Oct_03_1105,59.9922488866,test_experiment,001,1,
,,,,,,0,0,0,0,37,0,37,0,,,,,9,0.584076194267,9,0.218077211059,2018_Oct_03_1105,59.9922488866,test_experiment,001,1,
1,long,distractor,t2,L,39,0,0,0,0,38,0,38,0,0,0,0,0,,,,,2018_Oct_03_1105,59.9922488866,test_experiment,001,1,
2,long,distractor,t2,E,39,0,0,0,0,38,0,38,0,0,1,1,1,,,,,2018_Oct_03_1105,59.9922488866,test_experiment,001,1,
3,long,target,t2,4,39,0,0,0,0,38,0,38,0,0,2,2,2,,,,,2018_Oct_03_1105,59.9922488866,test_experiment,001,1,
4,long,distractor,t2,N,39,0,0,0,0,38,0,38,0,0,3,3,3,,,,,2018_Oct_03_1105,59.9922488866,test_experiment,001,1,
5,long,distractor,t2,H,39,0,0,0,0,38,0,38,0,0,4,4,4,,,,,2018_Oct_03_1105,59.9922488866,test_experiment,001,1,
6,long,distractor,t2,U,39,0,0,0,0,38,0,38,0,0,5,5,5,,,,,2018_Oct_03_1105,59.9922488866,test_experiment,001,1,
7,long,distractor,t2,N,39,0,0,0,0,38,0,38,0,0,6,6,6,,,,,2018_Oct_03_1105,59.9922488866,test_experiment,001,1,
8,long,distractor,t2,I,39,0,0,0,0,38,0,38,0,0,7,7,7,,,,,2018_Oct_03_1105,59.9922488866,test_experiment,001,1,
9,long,distractor,t2,L,39,0,0,0,0,38,0,38,0,0,8,8,8,,,,,2018_Oct_03_1105,59.9922488866,test_experiment,001,1,
10,long,distractor,t2,H,39,0,0,0,0,38,0,38,0,0,9,9,9,,,,,2018_Oct_03_1105,59.9922488866,test_experiment,001,1,
11,long,target,t2,8,39,0,0,0,0,38,0,38,0,0,10,10,10,,,,,2018_Oct_03_1105,59.9922488866,test_experiment,001,1,
12,long,distractor,t2,E,39,0,0,0,0,38,0,38,0,0,11,11,11,,,,,2018_Oct_03_1105,59.9922488866,test_experiment,001,1,
13,long,distractor,t2,K,39,0,0,0,0,38,0,38,0,0,12,12,12,,,,,2018_Oct_03_1105,59.9922488866,test_experiment,001,1,
14,long,distractor,t2,Y,39,0,0,0,0,38,0,38,0,0,13,13,13,,,,,2018_Oct_03_1105,59.9922488866,test_experiment,001,1,
15,long,distractor,t2,S,39,0,0,0,0,38,0,38,0,0,14,14,14,,,,,2018_Oct_03_1105,59.9922488866,test_experiment,001,1,
,,,,,,0,0,0,0,38,0,38,0,,,,,9,0.684510252613,8,0.101062039757,2018_Oct_03_1105,59.9922488866,test_experiment,001,1,
1,long,distractor,t2,J,40,0,0,0,0,39,0,39,0,0,0,0,0,,,,,2018_Oct_03_1105,59.9922488866,test_experiment,001,1,
2,long,distractor,t2,H,40,0,0,0,0,39,0,39,0,0,1,1,1,,,,,2018_Oct_03_1105,59.9922488866,test_experiment,001,1,
3,long,distractor,t2,Z,40,0,0,0,0,39,0,39,0,0,2,2,2,,,,,2018_Oct_03_1105,59.9922488866,test_experiment,001,1,
4,long,distractor,t2,F,40,0,0,0,0,39,0,39,0,0,3,3,3,,,,,2018_Oct_03_1105,59.9922488866,test_experiment,001,1,
5,long,distractor,t2,Y,40,0,0,0,0,39,0,39,0,0,4,4,4,,,,,2018_Oct_03_1105,59.9922488866,test_experiment,001,1,
6,long,target,t2,5,40,0,0,0,0,39,0,39,0,0,5,5,5,,,,,2018_Oct_03_1105,59.9922488866,test_experiment,001,1,
7,long,distractor,t2,H,40,0,0,0,0,39,0,39,0,0,6,6,6,,,,,2018_Oct_03_1105,59.9922488866,test_experiment,001,1,
8,long,distractor,t2,K,40,0,0,0,0,39,0,39,0,0,7,7,7,,,,,2018_Oct_03_1105,59.9922488866,test_experiment,001,1,
9,long,distractor,t2,O,40,0,0,0,0,39,0,39,0,0,8,8,8,,,,,2018_Oct_03_1105,59.9922488866,test_experiment,001,1,
10,long,distractor,t2,P,40,0,0,0,0,39,0,39,0,0,9,9,9,,,,,2018_Oct_03_1105,59.9922488866,test_experiment,001,1,
11,long,distractor,t2,Y,40,0,0,0,0,39,0,39,0,0,10,10,10,,,,,2018_Oct_03_1105,59.9922488866,test_experiment,001,1,
12,long,distractor,t2,G,40,0,0,0,0,39,0,39,0,0,11,11,11,,,,,2018_Oct_03_1105,59.9922488866,test_experiment,001,1,
13,long,distractor,t2,Q,40,0,0,0,0,39,0,39,0,0,12,12,12,,,,,2018_Oct_03_1105,59.9922488866,test_experiment,001,1,
14,long,target,t2,8,40,0,0,0,0,39,0,39,0,0,13,13,13,,,,,2018_Oct_03_1105,59.9922488866,test_experiment,001,1,
15,long,distractor,t2,Q,40,0,0,0,0,39,0,39,0,0,14,14,14,,,,,2018_Oct_03_1105,59.9922488866,test_experiment,001,1,
,,,,,,0,0,0,0,39,0,39,0,,,,,9,1.20088945003,8,0.000731342937797,2018_Oct_03_1105,59.9922488866,test_experiment,001,1,
1,short,distractor,t1,G,41,0,0,0,0,40,0,40,0,0,0,0,0,,,,,2018_Oct_03_1105,59.9922488866,test_experiment,001,1,
2,short,distractor,t1,C,41,0,0,0,0,40,0,40,0,0,1,1,1,,,,,2018_Oct_03_1105,59.9922488866,test_experiment,001,1,
3,short,distractor,t1,P,41,0,0,0,0,40,0,40,0,0,2,2,2,,,,,2018_Oct_03_1105,59.9922488866,test_experiment,001,1,
4,short,distractor,t1,T,41,0,0,0,0,40,0,40,0,0,3,3,3,,,,,2018_Oct_03_1105,59.9922488866,test_experiment,001,1,
5,short,distractor,t1,Y,41,0,0,0,0,40,0,40,0,0,4,4,4,,,,,2018_Oct_03_1105,59.9922488866,test_experiment,001,1,
6,short,distractor,t1,H,41,0,0,0,0,40,0,40,0,0,5,5,5,,,,,2018_Oct_03_1105,59.9922488866,test_experiment,001,1,
7,short,distractor,t1,Q,41,0,0,0,0,40,0,40,0,0,6,6,6,,,,,2018_Oct_03_1105,59.9922488866,test_experiment,001,1,
8,short,target,t1,7,41,0,0,0,0,40,0,40,0,0,7,7,7,,,,,2018_Oct_03_1105,59.9922488866,test_experiment,001,1,
9,short,distractor,t1,C,41,0,0,0,0,40,0,40,0,0,8,8,8,,,,,2018_Oct_03_1105,59.9922488866,test_experiment,001,1,
10,short,distractor,t1,M,41,0,0,0,0,40,0,40,0,0,9,9,9,,,,,2018_Oct_03_1105,59.9922488866,test_experiment,001,1,
11,short,distractor,t1,A,41,0,0,0,0,40,0,40,0,0,10,10,10,,,,,2018_Oct_03_1105,59.9922488866,test_experiment,001,1,
12,short,mask,t1, ,41,0,0,0,0,40,0,40,0,0,11,11,11,,,,,2018_Oct_03_1105,59.9922488866,test_experiment,001,1,
13,short,distractor,t1,H,41,0,0,0,0,40,0,40,0,0,12,12,12,,,,,2018_Oct_03_1105,59.9922488866,test_experiment,001,1,
14,short,distractor,t1,V,41,0,0,0,0,40,0,40,0,0,13,13,13,,,,,2018_Oct_03_1105,59.9922488866,test_experiment,001,1,
15,short,distractor,t1,J,41,0,0,0,0,40,0,40,0,0,14,14,14,,,,,2018_Oct_03_1105,59.9922488866,test_experiment,001,1,
16,short,distractor,t1,B,41,0,0,0,0,40,0,40,0,0,15,15,15,,,,,2018_Oct_03_1105,59.9922488866,test_experiment,001,1,
17,short,distractor,t1,S,41,0,0,0,0,40,0,40,0,0,16,16,16,,,,,2018_Oct_03_1105,59.9922488866,test_experiment,001,1,
18,short,distractor,t1,T,41,0,0,0,0,40,0,40,0,0,17,17,17,,,,,2018_Oct_03_1105,59.9922488866,test_experiment,001,1,
,,,,,,0,0,0,0,40,0,40,0,,,,,8,1.88480447243,9,0.00111053553701,2018_Oct_03_1105,59.9922488866,test_experiment,001,1,
1,short,distractor,t1,H,42,0,0,0,0,41,0,41,0,0,0,0,0,,,,,2018_Oct_03_1105,59.9922488866,test_experiment,001,1,
2,short,distractor,t1,M,42,0,0,0,0,41,0,41,0,0,1,1,1,,,,,2018_Oct_03_1105,59.9922488866,test_experiment,001,1,
3,short,distractor,t1,C,42,0,0,0,0,41,0,41,0,0,2,2,2,,,,,2018_Oct_03_1105,59.9922488866,test_experiment,001,1,
4,short,distractor,t1,R,42,0,0,0,0,41,0,41,0,0,3,3,3,,,,,2018_Oct_03_1105,59.9922488866,test_experiment,001,1,
5,short,distractor,t1,A,42,0,0,0,0,41,0,41,0,0,4,4,4,,,,,2018_Oct_03_1105,59.9922488866,test_experiment,001,1,
6,short,distractor,t1,A,42,0,0,0,0,41,0,41,0,0,5,5,5,,,,,2018_Oct_03_1105,59.9922488866,test_experiment,001,1,
7,short,distractor,t1,R,42,0,0,0,0,41,0,41,0,0,6,6,6,,,,,2018_Oct_03_1105,59.9922488866,test_experiment,001,1,
8,short,distractor,t1,M,42,0,0,0,0,41,0,41,0,0,7,7,7,,,,,2018_Oct_03_1105,59.9922488866,test_experiment,001,1,
9,short,distractor,t1,P,42,0,0,0,0,41,0,41,0,0,8,8,8,,,,,2018_Oct_03_1105,59.9922488866,test_experiment,001,1,
10,short,target,t1,1,42,0,0,0,0,41,0,41,0,0,9,9,9,,,,,2018_Oct_03_1105,59.9922488866,test_experiment,001,1,
11,short,distractor,t1,Q,42,0,0,0,0,41,0,41,0,0,10,10,10,,,,,2018_Oct_03_1105,59.9922488866,test_experiment,001,1,
12,short,distractor,t1,R,42,0,0,0,0,41,0,41,0,0,11,11,11,,,,,2018_Oct_03_1105,59.9922488866,test_experiment,001,1,
13,short,distractor,t1,V,42,0,0,0,0,41,0,41,0,0,12,12,12,,,,,2018_Oct_03_1105,59.9922488866,test_experiment,001,1,
14,short,mask,t1, ,42,0,0,0,0,41,0,41,0,0,13,13,13,,,,,2018_Oct_03_1105,59.9922488866,test_experiment,001,1,
15,short,distractor,t1,C,42,0,0,0,0,41,0,41,0,0,14,14,14,,,,,2018_Oct_03_1105,59.9922488866,test_experiment,001,1,
16,short,distractor,t1,N,42,0,0,0,0,41,0,41,0,0,15,15,15,,,,,2018_Oct_03_1105,59.9922488866,test_experiment,001,1,
,,,,,,0,0,0,0,41,0,41,0,,,,,8,1.5008512303,9,0.0506811044324,2018_Oct_03_1105,59.9922488866,test_experiment,001,1,
1,short,distractor,t2,U,43,0,0,0,0,42,0,42,0,0,0,0,0,,,,,2018_Oct_03_1105,59.9922488866,test_experiment,001,1,
2,short,distractor,t2,C,43,0,0,0,0,42,0,42,0,0,1,1,1,,,,,2018_Oct_03_1105,59.9922488866,test_experiment,001,1,
3,short,distractor,t2,C,43,0,0,0,0,42,0,42,0,0,2,2,2,,,,,2018_Oct_03_1105,59.9922488866,test_experiment,001,1,
4,short,target,t2,4,43,0,0,0,0,42,0,42,0,0,3,3,3,,,,,2018_Oct_03_1105,59.9922488866,test_experiment,001,1,
5,short,distractor,t2,D,43,0,0,0,0,42,0,42,0,0,4,4,4,,,,,2018_Oct_03_1105,59.9922488866,test_experiment,001,1,
6,short,distractor,t2,R,43,0,0,0,0,42,0,42,0,0,5,5,5,,,,,2018_Oct_03_1105,59.9922488866,test_experiment,001,1,
7,short,distractor,t2,D,43,0,0,0,0,42,0,42,0,0,6,6,6,,,,,2018_Oct_03_1105,59.9922488866,test_experiment,001,1,
8,short,target,t2,1,43,0,0,0,0,42,0,42,0,0,7,7,7,,,,,2018_Oct_03_1105,59.9922488866,test_experiment,001,1,
9,short,distractor,t2,J,43,0,0,0,0,42,0,42,0,0,8,8,8,,,,,2018_Oct_03_1105,59.9922488866,test_experiment,001,1,
10,short,distractor,t2,O,43,0,0,0,0,42,0,42,0,0,9,9,9,,,,,2018_Oct_03_1105,59.9922488866,test_experiment,001,1,
11,short,distractor,t2,G,43,0,0,0,0,42,0,42,0,0,10,10,10,,,,,2018_Oct_03_1105,59.9922488866,test_experiment,001,1,
12,short,distractor,t2,F,43,0,0,0,0,42,0,42,0,0,11,11,11,,,,,2018_Oct_03_1105,59.9922488866,test_experiment,001,1,
13,short,distractor,t2,O,43,0,0,0,0,42,0,42,0,0,12,12,12,,,,,2018_Oct_03_1105,59.9922488866,test_experiment,001,1,
14,short,distractor,t2,A,43,0,0,0,0,42,0,42,0,0,13,13,13,,,,,2018_Oct_03_1105,59.9922488866,test_experiment,001,1,
15,short,distractor,t2,G,43,0,0,0,0,42,0,42,0,0,14,14,14,,,,,2018_Oct_03_1105,59.9922488866,test_experiment,001,1,
,,,,,,0,0,0,0,42,0,42,0,,,,,9,0.218034544392,8,0.0173301836185,2018_Oct_03_1105,59.9922488866,test_experiment,001,1,
1,short,distractor,t2,B,44,0,0,0,0,43,0,43,0,0,0,0,0,,,,,2018_Oct_03_1105,59.9922488866,test_experiment,001,1,
2,short,distractor,t2,E,44,0,0,0,0,43,0,43,0,0,1,1,1,,,,,2018_Oct_03_1105,59.9922488866,test_experiment,001,1,
3,short,distractor,t2,I,44,0,0,0,0,43,0,43,0,0,2,2,2,,,,,2018_Oct_03_1105,59.9922488866,test_experiment,001,1,
4,short,distractor,t2,O,44,0,0,0,0,43,0,43,0,0,3,3,3,,,,,2018_Oct_03_1105,59.9922488866,test_experiment,001,1,
5,short,distractor,t2,R,44,0,0,0,0,43,0,43,0,0,4,4,4,,,,,2018_Oct_03_1105,59.9922488866,test_experiment,001,1,
6,short,distractor,t2,T,44,0,0,0,0,43,0,43,0,0,5,5,5,,,,,2018_Oct_03_1105,59.9922488866,test_experiment,001,1,
7,short,target,t2,3,44,0,0,0,0,43,0,43,0,0,6,6,6,,,,,2018_Oct_03_1105,59.9922488866,test_experiment,001,1,
8,short,distractor,t2,I,44,0,0,0,0,43,0,43,0,0,7,7,7,,,,,2018_Oct_03_1105,59.9922488866,test_experiment,001,1,
9,short,distractor,t2,N,44,0,0,0,0,43,0,43,0,0,8,8,8,,,,,2018_Oct_03_1105,59.9922488866,test_experiment,001,1,
10,short,distractor,t2,Y,44,0,0,0,0,43,0,43,0,0,9,9,9,,,,,2018_Oct_03_1105,59.9922488866,test_experiment,001,1,
11,short,target,t2,7,44,0,0,0,0,43,0,43,0,0,10,10,10,,,,,2018_Oct_03_1105,59.9922488866,test_experiment,001,1,
12,short,distractor,t2,P,44,0,0,0,0,43,0,43,0,0,11,11,11,,,,,2018_Oct_03_1105,59.9922488866,test_experiment,001,1,
13,short,distractor,t2,A,44,0,0,0,0,43,0,43,0,0,12,12,12,,,,,2018_Oct_03_1105,59.9922488866,test_experiment,001,1,
14,short,distractor,t2,E,44,0,0,0,0,43,0,43,0,0,13,13,13,,,,,2018_Oct_03_1105,59.9922488866,test_experiment,001,1,
15,short,distractor,t2,N,44,0,0,0,0,43,0,43,0,0,14,14,14,,,,,2018_Oct_03_1105,59.9922488866,test_experiment,001,1,
16,short,distractor,t2,G,44,0,0,0,0,43,0,43,0,0,15,15,15,,,,,2018_Oct_03_1105,59.9922488866,test_experiment,001,1,
17,short,distractor,t2,S,44,0,0,0,0,43,0,43,0,0,16,16,16,,,,,2018_Oct_03_1105,59.9922488866,test_experiment,001,1,
,,,,,,0,0,0,0,43,0,43,0,,,,,7,0.450822144849,8,0.234465122092,2018_Oct_03_1105,59.9922488866,test_experiment,001,1,
1,long,distractor,t2,L,45,0,0,0,0,44,0,44,0,0,0,0,0,,,,,2018_Oct_03_1105,59.9922488866,test_experiment,001,1,
2,long,distractor,t2,H,45,0,0,0,0,44,0,44,0,0,1,1,1,,,,,2018_Oct_03_1105,59.9922488866,test_experiment,001,1,
3,long,distractor,t2,T,45,0,0,0,0,44,0,44,0,0,2,2,2,,,,,2018_Oct_03_1105,59.9922488866,test_experiment,001,1,
4,long,target,t2,4,45,0,0,0,0,44,0,44,0,0,3,3,3,,,,,2018_Oct_03_1105,59.9922488866,test_experiment,001,1,
5,long,distractor,t2,G,45,0,0,0,0,44,0,44,0,0,4,4,4,,,,,2018_Oct_03_1105,59.9922488866,test_experiment,001,1,
6,long,distractor,t2,M,45,0,0,0,0,44,0,44,0,0,5,5,5,,,,,2018_Oct_03_1105,59.9922488866,test_experiment,001,1,
7,long,distractor,t2,H,45,0,0,0,0,44,0,44,0,0,6,6,6,,,,,2018_Oct_03_1105,59.9922488866,test_experiment,001,1,
8,long,distractor,t2,B,45,0,0,0,0,44,0,44,0,0,7,7,7,,,,,2018_Oct_03_1105,59.9922488866,test_experiment,001,1,
9,long,distractor,t2,P,45,0,0,0,0,44,0,44,0,0,8,8,8,,,,,2018_Oct_03_1105,59.9922488866,test_experiment,001,1,
10,long,distractor,t2,F,45,0,0,0,0,44,0,44,0,0,9,9,9,,,,,2018_Oct_03_1105,59.9922488866,test_experiment,001,1,
11,long,distractor,t2,F,45,0,0,0,0,44,0,44,0,0,10,10,10,,,,,2018_Oct_03_1105,59.9922488866,test_experiment,001,1,
12,long,target,t2,7,45,0,0,0,0,44,0,44,0,0,11,11,11,,,,,2018_Oct_03_1105,59.9922488866,test_experiment,001,1,
13,long,distractor,t2,O,45,0,0,0,0,44,0,44,0,0,12,12,12,,,,,2018_Oct_03_1105,59.9922488866,test_experiment,001,1,
14,long,distractor,t2,Q,45,0,0,0,0,44,0,44,0,0,13,13,13,,,,,2018_Oct_03_1105,59.9922488866,test_experiment,001,1,
15,long,distractor,t2,U,45,0,0,0,0,44,0,44,0,0,14,14,14,,,,,2018_Oct_03_1105,59.9922488866,test_experiment,001,1,
,,,,,,0,0,0,0,44,0,44,0,,,,,9,0.584209602763,8,0.118174082469,2018_Oct_03_1105,59.9922488866,test_experiment,001,1,
1,short,distractor,t1,K,46,0,0,0,0,45,0,45,0,0,0,0,0,,,,,2018_Oct_03_1105,59.9922488866,test_experiment,001,1,
2,short,distractor,t1,D,46,0,0,0,0,45,0,45,0,0,1,1,1,,,,,2018_Oct_03_1105,59.9922488866,test_experiment,001,1,
3,short,distractor,t1,H,46,0,0,0,0,45,0,45,0,0,2,2,2,,,,,2018_Oct_03_1105,59.9922488866,test_experiment,001,1,
4,short,distractor,t1,H,46,0,0,0,0,45,0,45,0,0,3,3,3,,,,,2018_Oct_03_1105,59.9922488866,test_experiment,001,1,
5,short,distractor,t1,I,46,0,0,0,0,45,0,45,0,0,4,4,4,,,,,2018_Oct_03_1105,59.9922488866,test_experiment,001,1,
6,short,distractor,t1,D,46,0,0,0,0,45,0,45,0,0,5,5,5,,,,,2018_Oct_03_1105,59.9922488866,test_experiment,001,1,
7,short,distractor,t1,I,46,0,0,0,0,45,0,45,0,0,6,6,6,,,,,2018_Oct_03_1105,59.9922488866,test_experiment,001,1,
8,short,distractor,t1,K,46,0,0,0,0,45,0,45,0,0,7,7,7,,,,,2018_Oct_03_1105,59.9922488866,test_experiment,001,1,
9,short,distractor,t1,L,46,0,0,0,0,45,0,45,0,0,8,8,8,,,,,2018_Oct_03_1105,59.9922488866,test_experiment,001,1,
10,short,target,t1,8,46,0,0,0,0,45,0,45,0,0,9,9,9,,,,,2018_Oct_03_1105,59.9922488866,test_experiment,001,1,
11,short,distractor,t1,A,46,0,0,0,0,45,0,45,0,0,10,10,10,,,,,2018_Oct_03_1105,59.9922488866,test_experiment,001,1,
12,short,distractor,t1,S,46,0,0,0,0,45,0,45,0,0,11,11,11,,,,,2018_Oct_03_1105,59.9922488866,test_experiment,001,1,
13,short,distractor,t1,W,46,0,0,0,0,45,0,45,0,0,12,12,12,,,,,2018_Oct_03_1105,59.9922488866,test_experiment,001,1,
14,short,mask,t1, ,46,0,0,0,0,45,0,45,0,0,13,13,13,,,,,2018_Oct_03_1105,59.9922488866,test_experiment,001,1,
15,short,distractor,t1,V,46,0,0,0,0,45,0,45,0,0,14,14,14,,,,,2018_Oct_03_1105,59.9922488866,test_experiment,001,1,
,,,,,,0,0,0,0,45,0,45,0,,,,,9,0.568294029916,8,0.117704748976,2018_Oct_03_1105,59.9922488866,test_experiment,001,1,
1,long,distractor,t2,C,47,0,0,0,0,46,0,46,0,0,0,0,0,,,,,2018_Oct_03_1105,59.9922488866,test_experiment,001,1,
2,long,distractor,t2,G,47,0,0,0,0,46,0,46,0,0,1,1,1,,,,,2018_Oct_03_1105,59.9922488866,test_experiment,001,1,
3,long,distractor,t2,F,47,0,0,0,0,46,0,46,0,0,2,2,2,,,,,2018_Oct_03_1105,59.9922488866,test_experiment,001,1,
4,long,target,t2,2,47,0,0,0,0,46,0,46,0,0,3,3,3,,,,,2018_Oct_03_1105,59.9922488866,test_experiment,001,1,
5,long,distractor,t2,D,47,0,0,0,0,46,0,46,0,0,4,4,4,,,,,2018_Oct_03_1105,59.9922488866,test_experiment,001,1,
6,long,distractor,t2,W,47,0,0,0,0,46,0,46,0,0,5,5,5,,,,,2018_Oct_03_1105,59.9922488866,test_experiment,001,1,
7,long,distractor,t2,X,47,0,0,0,0,46,0,46,0,0,6,6,6,,,,,2018_Oct_03_1105,59.9922488866,test_experiment,001,1,
8,long,distractor,t2,H,47,0,0,0,0,46,0,46,0,0,7,7,7,,,,,2018_Oct_03_1105,59.9922488866,test_experiment,001,1,
9,long,distractor,t2,A,47,0,0,0,0,46,0,46,0,0,8,8,8,,,,,2018_Oct_03_1105,59.9922488866,test_experiment,001,1,
10,long,distractor,t2,S,47,0,0,0,0,46,0,46,0,0,9,9,9,,,,,2018_Oct_03_1105,59.9922488866,test_experiment,001,1,
11,long,distractor,t2,P,47,0,0,0,0,46,0,46,0,0,10,10,10,,,,,2018_Oct_03_1105,59.9922488866,test_experiment,001,1,
12,long,target,t2,7,47,0,0,0,0,46,0,46,0,0,11,11,11,,,,,2018_Oct_03_1105,59.9922488866,test_experiment,001,1,
13,long,distractor,t2,Z,47,0,0,0,0,46,0,46,0,0,12,12,12,,,,,2018_Oct_03_1105,59.9922488866,test_experiment,001,1,
14,long,distractor,t2,T,47,0,0,0,0,46,0,46,0,0,13,13,13,,,,,2018_Oct_03_1105,59.9922488866,test_experiment,001,1,
15,long,distractor,t2,K,47,0,0,0,0,46,0,46,0,0,14,14,14,,,,,2018_Oct_03_1105,59.9922488866,test_experiment,001,1,
,,,,,,0,0,0,0,46,0,46,0,,,,,9,0.350977607814,8,0.135252172098,2018_Oct_03_1105,59.9922488866,test_experiment,001,1,
1,short,distractor,t1,Y,48,0,0,0,0,47,0,47,0,0,0,0,0,,,,,2018_Oct_03_1105,59.9922488866,test_experiment,001,1,
2,short,distractor,t1,X,48,0,0,0,0,47,0,47,0,0,1,1,1,,,,,2018_Oct_03_1105,59.9922488866,test_experiment,001,1,
3,short,distractor,t1,Y,48,0,0,0,0,47,0,47,0,0,2,2,2,,,,,2018_Oct_03_1105,59.9922488866,test_experiment,001,1,
4,short,distractor,t1,Y,48,0,0,0,0,47,0,47,0,0,3,3,3,,,,,2018_Oct_03_1105,59.9922488866,test_experiment,001,1,
5,short,distractor,t1,U,48,0,0,0,0,47,0,47,0,0,4,4,4,,,,,2018_Oct_03_1105,59.9922488866,test_experiment,001,1,
6,short,distractor,t1,N,48,0,0,0,0,47,0,47,0,0,5,5,5,,,,,2018_Oct_03_1105,59.9922488866,test_experiment,001,1,
7,short,distractor,t1,E,48,0,0,0,0,47,0,47,0,0,6,6,6,,,,,2018_Oct_03_1105,59.9922488866,test_experiment,001,1,
8,short,distractor,t1,E,48,0,0,0,0,47,0,47,0,0,7,7,7,,,,,2018_Oct_03_1105,59.9922488866,test_experiment,001,1,
9,short,distractor,t1,E,48,0,0,0,0,47,0,47,0,0,8,8,8,,,,,2018_Oct_03_1105,59.9922488866,test_experiment,001,1,
10,short,target,t1,1,48,0,0,0,0,47,0,47,0,0,9,9,9,,,,,2018_Oct_03_1105,59.9922488866,test_experiment,001,1,
11,short,distractor,t1,D,48,0,0,0,0,47,0,47,0,0,10,10,10,,,,,2018_Oct_03_1105,59.9922488866,test_experiment,001,1,
12,short,distractor,t1,B,48,0,0,0,0,47,0,47,0,0,11,11,11,,,,,2018_Oct_03_1105,59.9922488866,test_experiment,001,1,
13,short,distractor,t1,X,48,0,0,0,0,47,0,47,0,0,12,12,12,,,,,2018_Oct_03_1105,59.9922488866,test_experiment,001,1,
14,short,mask,t1, ,48,0,0,0,0,47,0,47,0,0,13,13,13,,,,,2018_Oct_03_1105,59.9922488866,test_experiment,001,1,
15,short,distractor,t1,U,48,0,0,0,0,47,0,47,0,0,14,14,14,,,,,2018_Oct_03_1105,59.9922488866,test_experiment,001,1,
,,,,,,0,0,0,0,47,0,47,0,,,,,9,0.0678153818881,8,0.101769946079,2018_Oct_03_1105,59.9922488866,test_experiment,001,1,
1,long,distractor,t2,G,49,0,0,0,0,48,0,48,0,0,0,0,0,,,,,2018_Oct_03_1105,59.9922488866,test_experiment,001,1,
2,long,distractor,t2,V,49,0,0,0,0,48,0,48,0,0,1,1,1,,,,,2018_Oct_03_1105,59.9922488866,test_experiment,001,1,
3,long,distractor,t2,D,49,0,0,0,0,48,0,48,0,0,2,2,2,,,,,2018_Oct_03_1105,59.9922488866,test_experiment,001,1,
4,long,distractor,t2,A,49,0,0,0,0,48,0,48,0,0,3,3,3,,,,,2018_Oct_03_1105,59.9922488866,test_experiment,001,1,
5,long,distractor,t2,I,49,0,0,0,0,48,0,48,0,0,4,4,4,,,,,2018_Oct_03_1105,59.9922488866,test_experiment,001,1,
6,long,distractor,t2,N,49,0,0,0,0,48,0,48,0,0,5,5,5,,,,,2018_Oct_03_1105,59.9922488866,test_experiment,001,1,
7,long,distractor,t2,P,49,0,0,0,0,48,0,48,0,0,6,6,6,,,,,2018_Oct_03_1105,59.9922488866,test_experiment,001,1,
8,long,target,t2,8,49,0,0,0,0,48,0,48,0,0,7,7,7,,,,,2018_Oct_03_1105,59.9922488866,test_experiment,001,1,
9,long,distractor,t2,P,49,0,0,0,0,48,0,48,0,0,8,8,8,,,,,2018_Oct_03_1105,59.9922488866,test_experiment,001,1,
10,long,distractor,t2,M,49,0,0,0,0,48,0,48,0,0,9,9,9,,,,,2018_Oct_03_1105,59.9922488866,test_experiment,001,1,
11,long,distractor,t2,U,49,0,0,0,0,48,0,48,0,0,10,10,10,,,,,2018_Oct_03_1105,59.9922488866,test_experiment,001,1,
12,long,distractor,t2,D,49,0,0,0,0,48,0,48,0,0,11,11,11,,,,,2018_Oct_03_1105,59.9922488866,test_experiment,001,1,
13,long,distractor,t2,Q,49,0,0,0,0,48,0,48,0,0,12,12,12,,,,,2018_Oct_03_1105,59.9922488866,test_experiment,001,1,
14,long,distractor,t2,T,49,0,0,0,0,48,0,48,0,0,13,13,13,,,,,2018_Oct_03_1105,59.9922488866,test_experiment,001,1,
15,long,distractor,t2,L,49,0,0,0,0,48,0,48,0,0,14,14,14,,,,,2018_Oct_03_1105,59.9922488866,test_experiment,001,1,
16,long,target,t2,2,49,0,0,0,0,48,0,48,0,0,15,15,15,,,,,2018_Oct_03_1105,59.9922488866,test_experiment,001,1,
17,long,distractor,t2,H,49,0,0,0,0,48,0,48,0,0,16,16,16,,,,,2018_Oct_03_1105,59.9922488866,test_experiment,001,1,
,,,,,,0,0,0,0,48,0,48,0,,,,,8,0.418057740637,9,1.25165739017,2018_Oct_03_1105,59.9922488866,test_experiment,001,1,
1,long,distractor,t2,L,50,0,0,0,0,49,0,49,0,0,0,0,0,,,,,2018_Oct_03_1105,59.9922488866,test_experiment,001,1,
2,long,distractor,t2,E,50,0,0,0,0,49,0,49,0,0,1,1,1,,,,,2018_Oct_03_1105,59.9922488866,test_experiment,001,1,
3,long,distractor,t2,P,50,0,0,0,0,49,0,49,0,0,2,2,2,,,,,2018_Oct_03_1105,59.9922488866,test_experiment,001,1,
4,long,distractor,t2,G,50,0,0,0,0,49,0,49,0,0,3,3,3,,,,,2018_Oct_03_1105,59.9922488866,test_experiment,001,1,
5,long,distractor,t2,H,50,0,0,0,0,49,0,49,0,0,4,4,4,,,,,2018_Oct_03_1105,59.9922488866,test_experiment,001,1,
6,long,distractor,t2,V,50,0,0,0,0,49,0,49,0,0,5,5,5,,,,,2018_Oct_03_1105,59.9922488866,test_experiment,001,1,
7,long,distractor,t2,Y,50,0,0,0,0,49,0,49,0,0,6,6,6,,,,,2018_Oct_03_1105,59.9922488866,test_experiment,001,1,
8,long,target,t2,4,50,0,0,0,0,49,0,49,0,0,7,7,7,,,,,2018_Oct_03_1105,59.9922488866,test_experiment,001,1,
9,long,distractor,t2,V,50,0,0,0,0,49,0,49,0,0,8,8,8,,,,,2018_Oct_03_1105,59.9922488866,test_experiment,001,1,
10,long,distractor,t2,I,50,0,0,0,0,49,0,49,0,0,9,9,9,,,,,2018_Oct_03_1105,59.9922488866,test_experiment,001,1,
11,long,distractor,t2,C,50,0,0,0,0,49,0,49,0,0,10,10,10,,,,,2018_Oct_03_1105,59.9922488866,test_experiment,001,1,
12,long,distractor,t2,C,50,0,0,0,0,49,0,49,0,0,11,11,11,,,,,2018_Oct_03_1105,59.9922488866,test_experiment,001,1,
13,long,distractor,t2,O,50,0,0,0,0,49,0,49,0,0,12,12,12,,,,,2018_Oct_03_1105,59.9922488866,test_experiment,001,1,
14,long,distractor,t2,N,50,0,0,0,0,49,0,49,0,0,13,13,13,,,,,2018_Oct_03_1105,59.9922488866,test_experiment,001,1,
15,long,distractor,t2,B,50,0,0,0,0,49,0,49,0,0,14,14,14,,,,,2018_Oct_03_1105,59.9922488866,test_experiment,001,1,
16,long,target,t2,8,50,0,0,0,0,49,0,49,0,0,15,15,15,,,,,2018_Oct_03_1105,59.9922488866,test_experiment,001,1,
17,long,distractor,t2,A,50,0,0,0,0,49,0,49,0,0,16,16,16,,,,,2018_Oct_03_1105,59.9922488866,test_experiment,001,1,
18,long,distractor,t2,P,50,0,0,0,0,49,0,49,0,0,17,17,17,,,,,2018_Oct_03_1105,59.9922488866,test_experiment,001,1,
,,,,,,0,0,0,0,49,0,49,0,,,,,9,0.267605413741,8,0.101342377864,2018_Oct_03_1105,59.9922488866,test_experiment,001,1,
1,long,distractor,t2,J,51,0,0,0,0,50,0,50,0,0,0,0,0,,,,,2018_Oct_03_1105,59.9922488866,test_experiment,001,1,
2,long,target,t2,3,51,0,0,0,0,50,0,50,0,0,1,1,1,,,,,2018_Oct_03_1105,59.9922488866,test_experiment,001,1,
3,long,distractor,t2,N,51,0,0,0,0,50,0,50,0,0,2,2,2,,,,,2018_Oct_03_1105,59.9922488866,test_experiment,001,1,
4,long,distractor,t2,Q,51,0,0,0,0,50,0,50,0,0,3,3,3,,,,,2018_Oct_03_1105,59.9922488866,test_experiment,001,1,
5,long,distractor,t2,A,51,0,0,0,0,50,0,50,0,0,4,4,4,,,,,2018_Oct_03_1105,59.9922488866,test_experiment,001,1,
6,long,distractor,t2,O,51,0,0,0,0,50,0,50,0,0,5,5,5,,,,,2018_Oct_03_1105,59.9922488866,test_experiment,001,1,
7,long,distractor,t2,O,51,0,0,0,0,50,0,50,0,0,6,6,6,,,,,2018_Oct_03_1105,59.9922488866,test_experiment,001,1,
8,long,distractor,t2,L,51,0,0,0,0,50,0,50,0,0,7,7,7,,,,,2018_Oct_03_1105,59.9922488866,test_experiment,001,1,
9,long,distractor,t2,I,51,0,0,0,0,50,0,50,0,0,8,8,8,,,,,2018_Oct_03_1105,59.9922488866,test_experiment,001,1,
10,long,target,t2,5,51,0,0,0,0,50,0,50,0,0,9,9,9,,,,,2018_Oct_03_1105,59.9922488866,test_experiment,001,1,
11,long,distractor,t2,P,51,0,0,0,0,50,0,50,0,0,10,10,10,,,,,2018_Oct_03_1105,59.9922488866,test_experiment,001,1,
12,long,distractor,t2,K,51,0,0,0,0,50,0,50,0,0,11,11,11,,,,,2018_Oct_03_1105,59.9922488866,test_experiment,001,1,
13,long,distractor,t2,E,51,0,0,0,0,50,0,50,0,0,12,12,12,,,,,2018_Oct_03_1105,59.9922488866,test_experiment,001,1,
14,long,distractor,t2,R,51,0,0,0,0,50,0,50,0,0,13,13,13,,,,,2018_Oct_03_1105,59.9922488866,test_experiment,001,1,
15,long,distractor,t2,W,51,0,0,0,0,50,0,50,0,0,14,14,14,,,,,2018_Oct_03_1105,59.9922488866,test_experiment,001,1,
16,long,distractor,t2,L,51,0,0,0,0,50,0,50,0,0,15,15,15,,,,,2018_Oct_03_1105,59.9922488866,test_experiment,001,1,
17,long,distractor,t2,F,51,0,0,0,0,50,0,50,0,0,16,16,16,,,,,2018_Oct_03_1105,59.9922488866,test_experiment,001,1,
18,long,distractor,t2,A,51,0,0,0,0,50,0,50,0,0,17,17,17,,,,,2018_Oct_03_1105,59.9922488866,test_experiment,001,1,
,,,,,,0,0,0,0,50,0,50,0,,,,,9,0.284857475257,9,0.651442374146,2018_Oct_03_1105,59.9922488866,test_experiment,001,1,
1,short,distractor,t1,V,52,0,0,0,0,51,0,51,0,0,0,0,0,,,,,2018_Oct_03_1105,59.9922488866,test_experiment,001,1,
2,short,distractor,t1,J,52,0,0,0,0,51,0,51,0,0,1,1,1,,,,,2018_Oct_03_1105,59.9922488866,test_experiment,001,1,
3,short,distractor,t1,Y,52,0,0,0,0,51,0,51,0,0,2,2,2,,,,,2018_Oct_03_1105,59.9922488866,test_experiment,001,1,
4,short,distractor,t1,O,52,0,0,0,0,51,0,51,0,0,3,3,3,,,,,2018_Oct_03_1105,59.9922488866,test_experiment,001,1,
5,short,distractor,t1,U,52,0,0,0,0,51,0,51,0,0,4,4,4,,,,,2018_Oct_03_1105,59.9922488866,test_experiment,001,1,
6,short,distractor,t1,M,52,0,0,0,0,51,0,51,0,0,5,5,5,,,,,2018_Oct_03_1105,59.9922488866,test_experiment,001,1,
7,short,distractor,t1,R,52,0,0,0,0,51,0,51,0,0,6,6,6,,,,,2018_Oct_03_1105,59.9922488866,test_experiment,001,1,
8,short,distractor,t1,O,52,0,0,0,0,51,0,51,0,0,7,7,7,,,,,2018_Oct_03_1105,59.9922488866,test_experiment,001,1,
9,short,distractor,t1,W,52,0,0,0,0,51,0,51,0,0,8,8,8,,,,,2018_Oct_03_1105,59.9922488866,test_experiment,001,1,
10,short,target,t1,3,52,0,0,0,0,51,0,51,0,0,9,9,9,,,,,2018_Oct_03_1105,59.9922488866,test_experiment,001,1,
11,short,distractor,t1,A,52,0,0,0,0,51,0,51,0,0,10,10,10,,,,,2018_Oct_03_1105,59.9922488866,test_experiment,001,1,
12,short,distractor,t1,V,52,0,0,0,0,51,0,51,0,0,11,11,11,,,,,2018_Oct_03_1105,59.9922488866,test_experiment,001,1,
13,short,distractor,t1,B,52,0,0,0,0,51,0,51,0,0,12,12,12,,,,,2018_Oct_03_1105,59.9922488866,test_experiment,001,1,
