trial,sep_dur,cond,Tx,stimulus,block,block.thisRepN,block.thisTrialN,block.thisN,block.thisIndex,trials.thisRepN,trials.thisTrialN,trials.thisN,trials.thisIndex,stim.thisRepN,stim.thisTrialN,stim.thisN,stim.thisIndex,usr_input_t1.keys,usr_input_t1.rt,usr_input_t2.keys,usr_input_t2.rt,date,frameRate,expName,session,participant,
1,short,distractor,t1,V,1,0,0,0,0,0,0,0,0,0,0,0,0,,,,,2018_Oct_03_1104,60.0476682765,test_experiment,001,1,
2,short,distractor,t1,F,1,0,0,0,0,0,0,0,0,0,1,1,1,,,,,2018_Oct_03_1104,60.0476682765,test_experiment,001,1,
3,short,distractor,t1,P,1,0,0,0,0,0,0,0,0,0,2,2,2,,,,,2018_Oct_03_1104,60.0476682765,test_experiment,001,1,
4,short,distractor,t1,M,1,0,0,0,0,0,0,0,0,0,3,3,3,,,,,2018_Oct_03_1104,60.0476682765,test_experiment,001,1,
5,short,distractor,t1,T,1,0,0,0,0,0,0,0,0,0,4,4,4,,,,,2018_Oct_03_1104,60.0476682765,test_experiment,001,1,
6,short,distractor,t1,L,1,0,0,0,0,0,0,0,0,0,5,5,5,,,,,2018_Oct_03_1104,60.0476682765,test_experiment,001,1,
7,short,distractor,t1,D,1,0,0,0,0,0,0,0,0,0,6,6,6,,,,,2018_Oct_03_1104,60.0476682765,test_experiment,001,1,
8,short,target,t1,4,1,0,0,0,0,0,0,0,0,0,7,7,7,,,,,2018_Oct_03_1104,60.0476682765,test_experiment,001,1,
9,short,distractor,t1,J,1,0,0,0,0,0,0,0,0,0,8,8,8,,,,,2018_Oct_03_1104,60.0476682765,test_experiment,001,1,
10,short,distractor,t1,U,1,0,0,0,0,0,0,0,0,0,9,9,9,,,,,2018_Oct_03_1104,60.0476682765,test_experiment,001,1,
11,short,distractor,t1,L,1,0,0,0,0,0,0,0,0,0,10,10,10,,,,,2018_Oct_03_1104,60.0476682765,test_experiment,001,1,
12,short,mask,t1, ,1,0,0,0,0,0,0,0,0,0,11,11,11,,,,,2018_Oct_03_1104,60.0476682765,test_experiment,001,1,
13,short,distractor,t1,S,1,0,0,0,0,0,0,0,0,0,12,12,12,,,,,2018_Oct_03_1104,60.0476682765,test_experiment,001,1,
14,short,distractor,t1,I,1,0,0,0,0,0,0,0,0,0,13,13,13,,,,,2018_Oct_03_1104,60.0476682765,test_experiment,001,1,
15,short,distractor,t1,S,1,0,0,0,0,0,0,0,0,0,14,14,14,,,,,2018_Oct_03_1104,60.0476682765,test_experiment,001,1,
,,,,,,0,0,0,0,0,0,0,0,,,,,5,1.03419043281,4,0.08441842912,2018_Oct_03_1104,60.0476682765,test_experiment,001,1,
1,short,target,t1,7,2,0,0,0,0,1,0,1,0,0,0,0,0,,,,,2018_Oct_03_1104,60.0476682765,test_experiment,001,1,
2,short,distractor,t1,U,2,0,0,0,0,1,0,1,0,0,1,1,1,,,,,2018_Oct_03_1104,60.0476682765,test_experiment,001,1,
3,short,distractor,t1,P,2,0,0,0,0,1,0,1,0,0,2,2,2,,,,,2018_Oct_03_1104,60.0476682765,test_experiment,001,1,
4,short,distractor,t1,S,2,0,0,0,0,1,0,1,0,0,3,3,3,,,,,2018_Oct_03_1104,60.0476682765,test_experiment,001,1,
5,short,mask,t1, ,2,0,0,0,0,1,0,1,0,0,4,4,4,,,,,2018_Oct_03_1104,60.0476682765,test_experiment,001,1,
6,short,distractor,t1,T,2,0,0,0,0,1,0,1,0,0,5,5,5,,,,,2018_Oct_03_1104,60.0476682765,test_experiment,001,1,
7,short,distractor,t1,N,2,0,0,0,0,1,0,1,0,0,6,6,6,,,,,2018_Oct_03_1104,60.0476682765,test_experiment,001,1,
8,short,distractor,t1,X,2,0,0,0,0,1,0,1,0,0,7,7,7,,,,,2018_Oct_03_1104,60.0476682765,test_experiment,001,1,
9,short,distractor,t1,I,2,0,0,0,0,1,0,1,0,0,8,8,8,,,,,2018_Oct_03_1104,60.0476682765,test_experiment,001,1,
10,short,distractor,t1,Y,2,0,0,0,0,1,0,1,0,0,9,9,9,,,,,2018_Oct_03_1104,60.0476682765,test_experiment,001,1,
11,short,distractor,t1,G,2,0,0,0,0,1,0,1,0,0,10,10,10,,,,,2018_Oct_03_1104,60.0476682765,test_experiment,001,1,
12,short,distractor,t1,O,2,0,0,0,0,1,0,1,0,0,11,11,11,,,,,2018_Oct_03_1104,60.0476682765,test_experiment,001,1,
13,short,distractor,t1,X,2,0,0,0,0,1,0,1,0,0,12,12,12,,,,,2018_Oct_03_1104,60.0476682765,test_experiment,001,1,
14,short,distractor,t1,L,2,0,0,0,0,1,0,1,0,0,13,13,13,,,,,2018_Oct_03_1104,60.0476682765,test_experiment,001,1,
15,short,distractor,t1,M,2,0,0,0,0,1,0,1,0,0,14,14,14,,,,,2018_Oct_03_1104,60.0476682765,test_experiment,001,1,
16,short,distractor,t1,R,2,0,0,0,0,1,0,1,0,0,15,15,15,,,,,2018_Oct_03_1104,60.0476682765,test_experiment,001,1,
17,short,distractor,t1,J,2,0,0,0,0,1,0,1,0,0,16,16,16,,,,,2018_Oct_03_1104,60.0476682765,test_experiment,001,1,
18,short,distractor,t1,K,2,0,0,0,0,1,0,1,0,0,17,17,17,,,,,2018_Oct_03_1104,60.0476682765,test_experiment,001,1,
,,,,,,0,0,0,0,1,0,1,0,,,,,8,0.717848854183,7,0.118307791417,2018_Oct_03_1104,60.0476682765,test_experiment,001,1,
1,long,distractor,t2,O,3,0,0,0,0,2,0,2,0,0,0,0,0,,,,,2018_Oct_03_1104,60.0476682765,test_experiment,001,1,
2,long,distractor,t2,Y,3,0,0,0,0,2,0,2,0,0,1,1,1,,,,,2018_Oct_03_1104,60.0476682765,test_experiment,001,1,
3,long,target,t2,8,3,0,0,0,0,2,0,2,0,0,2,2,2,,,,,2018_Oct_03_1104,60.0476682765,test_experiment,001,1,
4,long,distractor,t2,U,3,0,0,0,0,2,0,2,0,0,3,3,3,,,,,2018_Oct_03_1104,60.0476682765,test_experiment,001,1,
5,long,distractor,t2,K,3,0,0,0,0,2,0,2,0,0,4,4,4,,,,,2018_Oct_03_1104,60.0476682765,test_experiment,001,1,
6,long,distractor,t2,B,3,0,0,0,0,2,0,2,0,0,5,5,5,,,,,2018_Oct_03_1104,60.0476682765,test_experiment,001,1,
7,long,distractor,t2,U,3,0,0,0,0,2,0,2,0,0,6,6,6,,,,,2018_Oct_03_1104,60.0476682765,test_experiment,001,1,
8,long,distractor,t2,A,3,0,0,0,0,2,0,2,0,0,7,7,7,,,,,2018_Oct_03_1104,60.0476682765,test_experiment,001,1,
9,long,distractor,t2,U,3,0,0,0,0,2,0,2,0,0,8,8,8,,,,,2018_Oct_03_1104,60.0476682765,test_experiment,001,1,
10,long,distractor,t2,K,3,0,0,0,0,2,0,2,0,0,9,9,9,,,,,2018_Oct_03_1104,60.0476682765,test_experiment,001,1,
11,long,target,t2,8,3,0,0,0,0,2,0,2,0,0,10,10,10,,,,,2018_Oct_03_1104,60.0476682765,test_experiment,001,1,
12,long,distractor,t2,F,3,0,0,0,0,2,0,2,0,0,11,11,11,,,,,2018_Oct_03_1104,60.0476682765,test_experiment,001,1,
13,long,distractor,t2,E,3,0,0,0,0,2,0,2,0,0,12,12,12,,,,,2018_Oct_03_1104,60.0476682765,test_experiment,001,1,
14,long,distractor,t2,J,3,0,0,0,0,2,0,2,0,0,13,13,13,,,,,2018_Oct_03_1104,60.0476682765,test_experiment,001,1,
15,long,distractor,t2,Y,3,0,0,0,0,2,0,2,0,0,14,14,14,,,,,2018_Oct_03_1104,60.0476682765,test_experiment,001,1,
16,long,distractor,t2,I,3,0,0,0,0,2,0,2,0,0,15,15,15,,,,,2018_Oct_03_1104,60.0476682765,test_experiment,001,1,
