block,sep_dur,Tx,trial,stimulus,cond,block.thisRepN,block.thisTrialN,block.thisN,block.thisIndex,trials.thisRepN,trials.thisTrialN,trials.thisN,trials.thisIndex,stim.thisRepN,stim.thisTrialN,stim.thisN,stim.thisIndex,usr_input_t1.keys,usr_input_t1.rt,usr_input_t2.keys,usr_input_t2.rt,date,participant,expName,run,frameRate,
1,long,t2,1,O,distractor,0,0,0,0,0,0,0,0,0,0,0,0,,,,,2018_Oct_17_1530,1001,rsvp,r2,59.8208707699,
1,long,t2,2,N,distractor,0,0,0,0,0,0,0,0,0,1,1,1,,,,,2018_Oct_17_1530,1001,rsvp,r2,59.8208707699,
1,long,t2,3,2,target,0,0,0,0,0,0,0,0,0,2,2,2,,,,,2018_Oct_17_1530,1001,rsvp,r2,59.8208707699,
1,long,t2,4,T,distractor,0,0,0,0,0,0,0,0,0,3,3,3,,,,,2018_Oct_17_1530,1001,rsvp,r2,59.8208707699,
1,long,t2,5,A,distractor,0,0,0,0,0,0,0,0,0,4,4,4,,,,,2018_Oct_17_1530,1001,rsvp,r2,59.8208707699,
1,long,t2,6,Q,distractor,0,0,0,0,0,0,0,0,0,5,5,5,,,,,2018_Oct_17_1530,1001,rsvp,r2,59.8208707699,
1,long,t2,7,M,distractor,0,0,0,0,0,0,0,0,0,6,6,6,,,,,2018_Oct_17_1530,1001,rsvp,r2,59.8208707699,
1,long,t2,8,Z,distractor,0,0,0,0,0,0,0,0,0,7,7,7,,,,,2018_Oct_17_1530,1001,rsvp,r2,59.8208707699,
1,long,t2,9,V,distractor,0,0,0,0,0,0,0,0,0,8,8,8,,,,,2018_Oct_17_1530,1001,rsvp,r2,59.8208707699,
1,long,t2,10,J,distractor,0,0,0,0,0,0,0,0,0,9,9,9,,,,,2018_Oct_17_1530,1001,rsvp,r2,59.8208707699,
1,long,t2,11,8,target,0,0,0,0,0,0,0,0,0,10,10,10,,,,,2018_Oct_17_1530,1001,rsvp,r2,59.8208707699,
1,long,t2,12,A,distractor,0,0,0,0,0,0,0,0,0,11,11,11,,,,,2018_Oct_17_1530,1001,rsvp,r2,59.8208707699,
1,long,t2,13,Z,distractor,0,0,0,0,0,0,0,0,0,12,12,12,,,,,2018_Oct_17_1530,1001,rsvp,r2,59.8208707699,
1,long,t2,14,I,distractor,0,0,0,0,0,0,0,0,0,13,13,13,,,,,2018_Oct_17_1530,1001,rsvp,r2,59.8208707699,
1,long,t2,15,X,distractor,0,0,0,0,0,0,0,0,0,14,14,14,,,,,2018_Oct_17_1530,1001,rsvp,r2,59.8208707699,
1,long,t2,16,C,distractor,0,0,0,0,0,0,0,0,0,15,15,15,,,,,2018_Oct_17_1530,1001,rsvp,r2,59.8208707699,
,,,,,,0,0,0,0,0,0,0,0,,,,,3,0.550461139879,3,0.185461513174,2018_Oct_17_1530,1001,rsvp,r2,59.8208707699,
2,long,t2,1,4,target,0,0,0,0,1,0,1,0,0,0,0,0,,,,,2018_Oct_17_1530,1001,rsvp,r2,59.8208707699,
2,long,t2,2,A,distractor,0,0,0,0,1,0,1,0,0,1,1,1,,,,,2018_Oct_17_1530,1001,rsvp,r2,59.8208707699,
2,long,t2,3,X,distractor,0,0,0,0,1,0,1,0,0,2,2,2,,,,,2018_Oct_17_1530,1001,rsvp,r2,59.8208707699,
2,long,t2,4,V,distractor,0,0,0,0,1,0,1,0,0,3,3,3,,,,,2018_Oct_17_1530,1001,rsvp,r2,59.8208707699,
2,long,t2,5,B,distractor,0,0,0,0,1,0,1,0,0,4,4,4,,,,,2018_Oct_17_1530,1001,rsvp,r2,59.8208707699,
2,long,t2,6,T,distractor,0,0,0,0,1,0,1,0,0,5,5,5,,,,,2018_Oct_17_1530,1001,rsvp,r2,59.8208707699,
2,long,t2,7,Q,distractor,0,0,0,0,1,0,1,0,0,6,6,6,,,,,2018_Oct_17_1530,1001,rsvp,r2,59.8208707699,
2,long,t2,8,L,distractor,0,0,0,0,1,0,1,0,0,7,7,7,,,,,2018_Oct_17_1530,1001,rsvp,r2,59.8208707699,
2,long,t2,9,4,target,0,0,0,0,1,0,1,0,0,8,8,8,,,,,2018_Oct_17_1530,1001,rsvp,r2,59.8208707699,
2,long,t2,10,Q,distractor,0,0,0,0,1,0,1,0,0,9,9,9,,,,,2018_Oct_17_1530,1001,rsvp,r2,59.8208707699,
2,long,t2,11,H,distractor,0,0,0,0,1,0,1,0,0,10,10,10,,,,,2018_Oct_17_1530,1001,rsvp,r2,59.8208707699,
2,long,t2,12,N,distractor,0,0,0,0,1,0,1,0,0,11,11,11,,,,,2018_Oct_17_1530,1001,rsvp,r2,59.8208707699,
2,long,t2,13,B,distractor,0,0,0,0,1,0,1,0,0,12,12,12,,,,,2018_Oct_17_1530,1001,rsvp,r2,59.8208707699,
2,long,t2,14,G,distractor,0,0,0,0,1,0,1,0,0,13,13,13,,,,,2018_Oct_17_1530,1001,rsvp,r2,59.8208707699,
2,long,t2,15,Y,distractor,0,0,0,0,1,0,1,0,0,14,14,14,,,,,2018_Oct_17_1530,1001,rsvp,r2,59.8208707699,
2,long,t2,16, ,mask,0,0,0,0,1,0,1,0,0,15,15,15,,,,,2018_Oct_17_1530,1001,rsvp,r2,59.8208707699,
2,long,t2,17,B,distractor,0,0,0,0,1,0,1,0,0,16,16,16,,,,,2018_Oct_17_1530,1001,rsvp,r2,59.8208707699,
2,long,t2,18,N,distractor,0,0,0,0,1,0,1,0,0,17,17,17,,,,,2018_Oct_17_1530,1001,rsvp,r2,59.8208707699,
,,,,,,0,0,0,0,1,0,1,0,,,,,3,0.683794117649,3,0.516118318657,2018_Oct_17_1530,1001,rsvp,r2,59.8208707699,
3,short,t1,1,V,distractor,0,0,0,0,2,0,2,0,0,0,0,0,,,,,2018_Oct_17_1530,1001,rsvp,r2,59.8208707699,
3,short,t1,2,S,distractor,0,0,0,0,2,0,2,0,0,1,1,1,,,,,2018_Oct_17_1530,1001,rsvp,r2,59.8208707699,
3,short,t1,3,G,distractor,0,0,0,0,2,0,2,0,0,2,2,2,,,,,2018_Oct_17_1530,1001,rsvp,r2,59.8208707699,
3,short,t1,4,H,distractor,0,0,0,0,2,0,2,0,0,3,3,3,,,,,2018_Oct_17_1530,1001,rsvp,r2,59.8208707699,
3,short,t1,5,W,distractor,0,0,0,0,2,0,2,0,0,4,4,4,,,,,2018_Oct_17_1530,1001,rsvp,r2,59.8208707699,
3,short,t1,6,N,distractor,0,0,0,0,2,0,2,0,0,5,5,5,,,,,2018_Oct_17_1530,1001,rsvp,r2,59.8208707699,
3,short,t1,7,J,distractor,0,0,0,0,2,0,2,0,0,6,6,6,,,,,2018_Oct_17_1530,1001,rsvp,r2,59.8208707699,
3,short,t1,8,N,distractor,0,0,0,0,2,0,2,0,0,7,7,7,,,,,2018_Oct_17_1530,1001,rsvp,r2,59.8208707699,
3,short,t1,9,2,target,0,0,0,0,2,0,2,0,0,8,8,8,,,,,2018_Oct_17_1530,1001,rsvp,r2,59.8208707699,
3,short,t1,10,H,distractor,0,0,0,0,2,0,2,0,0,9,9,9,,,,,2018_Oct_17_1530,1001,rsvp,r2,59.8208707699,
3,short,t1,11,D,distractor,0,0,0,0,2,0,2,0,0,10,10,10,,,,,2018_Oct_17_1530,1001,rsvp,r2,59.8208707699,
3,short,t1,12,E,distractor,0,0,0,0,2,0,2,0,0,11,11,11,,,,,2018_Oct_17_1530,1001,rsvp,r2,59.8208707699,
3,short,t1,13, ,mask,0,0,0,0,2,0,2,0,0,12,12,12,,,,,2018_Oct_17_1530,1001,rsvp,r2,59.8208707699,
3,short,t1,14,C,distractor,0,0,0,0,2,0,2,0,0,13,13,13,,,,,2018_Oct_17_1530,1001,rsvp,r2,59.8208707699,
3,short,t1,15,J,distractor,0,0,0,0,2,0,2,0,0,14,14,14,,,,,2018_Oct_17_1530,1001,rsvp,r2,59.8208707699,
,,,,,,0,0,0,0,2,0,2,0,,,,,3,0.283693366044,3,0.23296361987,2018_Oct_17_1530,1001,rsvp,r2,59.8208707699,
4,long,t2,1,Y,distractor,0,0,0,0,3,0,3,0,0,0,0,0,,,,,2018_Oct_17_1530,1001,rsvp,r2,59.8208707699,
4,long,t2,2,1,target,0,0,0,0,3,0,3,0,0,1,1,1,,,,,2018_Oct_17_1530,1001,rsvp,r2,59.8208707699,
4,long,t2,3,F,distractor,0,0,0,0,3,0,3,0,0,2,2,2,,,,,2018_Oct_17_1530,1001,rsvp,r2,59.8208707699,
4,long,t2,4,L,distractor,0,0,0,0,3,0,3,0,0,3,3,3,,,,,2018_Oct_17_1530,1001,rsvp,r2,59.8208707699,
4,long,t2,5,G,distractor,0,0,0,0,3,0,3,0,0,4,4,4,,,,,2018_Oct_17_1530,1001,rsvp,r2,59.8208707699,
4,long,t2,6,R,distractor,0,0,0,0,3,0,3,0,0,5,5,5,,,,,2018_Oct_17_1530,1001,rsvp,r2,59.8208707699,
4,long,t2,7,B,distractor,0,0,0,0,3,0,3,0,0,6,6,6,,,,,2018_Oct_17_1530,1001,rsvp,r2,59.8208707699,
4,long,t2,8,S,distractor,0,0,0,0,3,0,3,0,0,7,7,7,,,,,2018_Oct_17_1530,1001,rsvp,r2,59.8208707699,
4,long,t2,9,B,distractor,0,0,0,0,3,0,3,0,0,8,8,8,,,,,2018_Oct_17_1530,1001,rsvp,r2,59.8208707699,
4,long,t2,10,3,target,0,0,0,0,3,0,3,0,0,9,9,9,,,,,2018_Oct_17_1530,1001,rsvp,r2,59.8208707699,
4,long,t2,11,A,distractor,0,0,0,0,3,0,3,0,0,10,10,10,,,,,2018_Oct_17_1530,1001,rsvp,r2,59.8208707699,
4,long,t2,12,I,distractor,0,0,0,0,3,0,3,0,0,11,11,11,,,,,2018_Oct_17_1530,1001,rsvp,r2,59.8208707699,
4,long,t2,13,X,distractor,0,0,0,0,3,0,3,0,0,12,12,12,,,,,2018_Oct_17_1530,1001,rsvp,r2,59.8208707699,
4,long,t2,14,P,distractor,0,0,0,0,3,0,3,0,0,13,13,13,,,,,2018_Oct_17_1530,1001,rsvp,r2,59.8208707699,
4,long,t2,15,U,distractor,0,0,0,0,3,0,3,0,0,14,14,14,,,,,2018_Oct_17_1530,1001,rsvp,r2,59.8208707699,
4,long,t2,16,F,distractor,0,0,0,0,3,0,3,0,0,15,15,15,,,,,2018_Oct_17_1530,1001,rsvp,r2,59.8208707699,
4,long,t2,17,H,distractor,0,0,0,0,3,0,3,0,0,16,16,16,,,,,2018_Oct_17_1530,1001,rsvp,r2,59.8208707699,
4,long,t2,18,V,distractor,0,0,0,0,3,0,3,0,0,17,17,17,,,,,2018_Oct_17_1530,1001,rsvp,r2,59.8208707699,
,,,,,,0,0,0,0,3,0,3,0,,,,,3,0.300565139914,3,0.200169891061,2018_Oct_17_1530,1001,rsvp,r2,59.8208707699,
,,,,,,0,0,0,0,,,,,,,,,,,,,2018_Oct_17_1530,1001,rsvp,r2,59.8208707699,
5,long,t2,1,B,distractor,1,0,1,0,0,0,0,0,0,0,0,0,,,,,2018_Oct_17_1530,1001,rsvp,r2,59.8208707699,
5,long,t2,2,6,target,1,0,1,0,0,0,0,0,0,1,1,1,,,,,2018_Oct_17_1530,1001,rsvp,r2,59.8208707699,
5,long,t2,3,T,distractor,1,0,1,0,0,0,0,0,0,2,2,2,,,,,2018_Oct_17_1530,1001,rsvp,r2,59.8208707699,
5,long,t2,4,R,distractor,1,0,1,0,0,0,0,0,0,3,3,3,,,,,2018_Oct_17_1530,1001,rsvp,r2,59.8208707699,
5,long,t2,5,V,distractor,1,0,1,0,0,0,0,0,0,4,4,4,,,,,2018_Oct_17_1530,1001,rsvp,r2,59.8208707699,
5,long,t2,6,A,distractor,1,0,1,0,0,0,0,0,0,5,5,5,,,,,2018_Oct_17_1530,1001,rsvp,r2,59.8208707699,
5,long,t2,7,A,distractor,1,0,1,0,0,0,0,0,0,6,6,6,,,,,2018_Oct_17_1530,1001,rsvp,r2,59.8208707699,
