block,sep_dur,Tx,trial,stimulus,cond,block.thisRepN,block.thisTrialN,block.thisN,block.thisIndex,trials.thisRepN,trials.thisTrialN,trials.thisN,trials.thisIndex,stim.thisRepN,stim.thisTrialN,stim.thisN,stim.thisIndex,usr_input_t1.keys,usr_input_t1.rt,usr_input_t2.keys,usr_input_t2.rt,date,participant,expName,run,frameRate,
1,short,t2,1,U,distractor,0,0,0,0,0,0,0,0,0,0,0,0,,,,,2018_Nov_03_1642,10,rsvp,r,30.1326166591,
1,short,t2,2,Y,distractor,0,0,0,0,0,0,0,0,0,1,1,1,,,,,2018_Nov_03_1642,10,rsvp,r,30.1326166591,
1,short,t2,3,R,distractor,0,0,0,0,0,0,0,0,0,2,2,2,,,,,2018_Nov_03_1642,10,rsvp,r,30.1326166591,
1,short,t2,4,F,distractor,0,0,0,0,0,0,0,0,0,3,3,3,,,,,2018_Nov_03_1642,10,rsvp,r,30.1326166591,
1,short,t2,5,6,target,0,0,0,0,0,0,0,0,0,4,4,4,,,,,2018_Nov_03_1642,10,rsvp,r,30.1326166591,
1,short,t2,6,S,distractor,0,0,0,0,0,0,0,0,0,5,5,5,,,,,2018_Nov_03_1642,10,rsvp,r,30.1326166591,
1,short,t2,7,P,distractor,0,0,0,0,0,0,0,0,0,6,6,6,,,,,2018_Nov_03_1642,10,rsvp,r,30.1326166591,
1,short,t2,8,H,distractor,0,0,0,0,0,0,0,0,0,7,7,7,,,,,2018_Nov_03_1642,10,rsvp,r,30.1326166591,
1,short,t2,9,R,distractor,0,0,0,0,0,0,0,0,0,8,8,8,,,,,2018_Nov_03_1642,10,rsvp,r,30.1326166591,
1,short,t2,10,5,target,0,0,0,0,0,0,0,0,0,9,9,9,,,,,2018_Nov_03_1642,10,rsvp,r,30.1326166591,
1,short,t2,11,C,distractor,0,0,0,0,0,0,0,0,0,10,10,10,,,,,2018_Nov_03_1642,10,rsvp,r,30.1326166591,
1,short,t2,12,Y,distractor,0,0,0,0,0,0,0,0,0,11,11,11,,,,,2018_Nov_03_1642,10,rsvp,r,30.1326166591,
1,short,t2,13,C,distractor,0,0,0,0,0,0,0,0,0,12,12,12,,,,,2018_Nov_03_1642,10,rsvp,r,30.1326166591,
1,short,t2,14,I,distractor,0,0,0,0,0,0,0,0,0,13,13,13,,,,,2018_Nov_03_1642,10,rsvp,r,30.1326166591,
1,short,t2,15,R,distractor,0,0,0,0,0,0,0,0,0,14,14,14,,,,,2018_Nov_03_1642,10,rsvp,r,30.1326166591,
1,short,t2,16,H,distractor,0,0,0,0,0,0,0,0,0,15,15,15,,,,,2018_Nov_03_1642,10,rsvp,r,30.1326166591,
1,short,t2,17,Q,distractor,0,0,0,0,0,0,0,0,0,16,16,16,,,,,2018_Nov_03_1642,10,rsvp,r,30.1326166591,
1,short,t2,18,S,distractor,0,0,0,0,0,0,0,0,0,17,17,17,,,,,2018_Nov_03_1642,10,rsvp,r,30.1326166591,
,,,,,,0,0,0,0,0,0,0,0,,,,,3,1.6308583,3,0.7694928,2018_Nov_03_1642,10,rsvp,r,30.1326166591,
2,short,t1,1,K,distractor,0,0,0,0,1,0,1,0,0,0,0,0,,,,,2018_Nov_03_1642,10,rsvp,r,30.1326166591,
2,short,t1,2,J,distractor,0,0,0,0,1,0,1,0,0,1,1,1,,,,,2018_Nov_03_1642,10,rsvp,r,30.1326166591,
2,short,t1,3,I,distractor,0,0,0,0,1,0,1,0,0,2,2,2,,,,,2018_Nov_03_1642,10,rsvp,r,30.1326166591,
2,short,t1,4,X,distractor,0,0,0,0,1,0,1,0,0,3,3,3,,,,,2018_Nov_03_1642,10,rsvp,r,30.1326166591,
2,short,t1,5,Z,distractor,0,0,0,0,1,0,1,0,0,4,4,4,,,,,2018_Nov_03_1642,10,rsvp,r,30.1326166591,
2,short,t1,6,O,distractor,0,0,0,0,1,0,1,0,0,5,5,5,,,,,2018_Nov_03_1642,10,rsvp,r,30.1326166591,
2,short,t1,7,L,distractor,0,0,0,0,1,0,1,0,0,6,6,6,,,,,2018_Nov_03_1642,10,rsvp,r,30.1326166591,
2,short,t1,8,H,distractor,0,0,0,0,1,0,1,0,0,7,7,7,,,,,2018_Nov_03_1642,10,rsvp,r,30.1326166591,
2,short,t1,9,J,distractor,0,0,0,0,1,0,1,0,0,8,8,8,,,,,2018_Nov_03_1642,10,rsvp,r,30.1326166591,
2,short,t1,10,2,target,0,0,0,0,1,0,1,0,0,9,9,9,,,,,2018_Nov_03_1642,10,rsvp,r,30.1326166591,
2,short,t1,11,R,distractor,0,0,0,0,1,0,1,0,0,10,10,10,,,,,2018_Nov_03_1642,10,rsvp,r,30.1326166591,
2,short,t1,12,J,distractor,0,0,0,0,1,0,1,0,0,11,11,11,,,,,2018_Nov_03_1642,10,rsvp,r,30.1326166591,
2,short,t1,13,B,distractor,0,0,0,0,1,0,1,0,0,12,12,12,,,,,2018_Nov_03_1642,10,rsvp,r,30.1326166591,
2,short,t1,14,C,distractor,0,0,0,0,1,0,1,0,0,13,13,13,,,,,2018_Nov_03_1642,10,rsvp,r,30.1326166591,
2,short,t1,15, ,mask,0,0,0,0,1,0,1,0,0,14,14,14,,,,,2018_Nov_03_1642,10,rsvp,r,30.1326166591,
2,short,t1,16,F,distractor,0,0,0,0,1,0,1,0,0,15,15,15,,,,,2018_Nov_03_1642,10,rsvp,r,30.1326166591,
2,short,t1,17,M,distractor,0,0,0,0,1,0,1,0,0,16,16,16,,,,,2018_Nov_03_1642,10,rsvp,r,30.1326166591,
,,,,,,0,0,0,0,1,0,1,0,,,,,4,1.1010173,4,0.115430000002,2018_Nov_03_1642,10,rsvp,r,30.1326166591,
3,short,t1,1,X,distractor,0,0,0,0,2,0,2,0,0,0,0,0,,,,,2018_Nov_03_1642,10,rsvp,r,30.1326166591,
3,short,t1,2,W,distractor,0,0,0,0,2,0,2,0,0,1,1,1,,,,,2018_Nov_03_1642,10,rsvp,r,30.1326166591,
3,short,t1,3,2,target,0,0,0,0,2,0,2,0,0,2,2,2,,,,,2018_Nov_03_1642,10,rsvp,r,30.1326166591,
3,short,t1,4,B,distractor,0,0,0,0,2,0,2,0,0,3,3,3,,,,,2018_Nov_03_1642,10,rsvp,r,30.1326166591,
3,short,t1,5,V,distractor,0,0,0,0,2,0,2,0,0,4,4,4,,,,,2018_Nov_03_1642,10,rsvp,r,30.1326166591,
3,short,t1,6,B,distractor,0,0,0,0,2,0,2,0,0,5,5,5,,,,,2018_Nov_03_1642,10,rsvp,r,30.1326166591,
3,short,t1,7,K,distractor,0,0,0,0,2,0,2,0,0,6,6,6,,,,,2018_Nov_03_1642,10,rsvp,r,30.1326166591,
3,short,t1,8, ,mask,0,0,0,0,2,0,2,0,0,7,7,7,,,,,2018_Nov_03_1642,10,rsvp,r,30.1326166591,
3,short,t1,9,F,distractor,0,0,0,0,2,0,2,0,0,8,8,8,,,,,2018_Nov_03_1642,10,rsvp,r,30.1326166591,
3,short,t1,10,I,distractor,0,0,0,0,2,0,2,0,0,9,9,9,,,,,2018_Nov_03_1642,10,rsvp,r,30.1326166591,
3,short,t1,11,N,distractor,0,0,0,0,2,0,2,0,0,10,10,10,,,,,2018_Nov_03_1642,10,rsvp,r,30.1326166591,
3,short,t1,12,J,distractor,0,0,0,0,2,0,2,0,0,11,11,11,,,,,2018_Nov_03_1642,10,rsvp,r,30.1326166591,
3,short,t1,13,G,distractor,0,0,0,0,2,0,2,0,0,12,12,12,,,,,2018_Nov_03_1642,10,rsvp,r,30.1326166591,
3,short,t1,14,H,distractor,0,0,0,0,2,0,2,0,0,13,13,13,,,,,2018_Nov_03_1642,10,rsvp,r,30.1326166591,
3,short,t1,15,N,distractor,0,0,0,0,2,0,2,0,0,14,14,14,,,,,2018_Nov_03_1642,10,rsvp,r,30.1326166591,
3,short,t1,16,H,distractor,0,0,0,0,2,0,2,0,0,15,15,15,,,,,2018_Nov_03_1642,10,rsvp,r,30.1326166591,
3,short,t1,17,N,distractor,0,0,0,0,2,0,2,0,0,16,16,16,,,,,2018_Nov_03_1642,10,rsvp,r,30.1326166591,
,,,,,,0,0,0,0,2,0,2,0,,,,,5,0.795136500001,5,0.113683,2018_Nov_03_1642,10,rsvp,r,30.1326166591,
4,short,t1,1,G,distractor,0,0,0,0,3,0,3,0,0,0,0,0,,,,,2018_Nov_03_1642,10,rsvp,r,30.1326166591,
4,short,t1,2,6,target,0,0,0,0,3,0,3,0,0,1,1,1,,,,,2018_Nov_03_1642,10,rsvp,r,30.1326166591,
4,short,t1,3,G,distractor,0,0,0,0,3,0,3,0,0,2,2,2,,,,,2018_Nov_03_1642,10,rsvp,r,30.1326166591,
4,short,t1,4,X,distractor,0,0,0,0,3,0,3,0,0,3,3,3,,,,,2018_Nov_03_1642,10,rsvp,r,30.1326166591,
4,short,t1,5,Z,distractor,0,0,0,0,3,0,3,0,0,4,4,4,,,,,2018_Nov_03_1642,10,rsvp,r,30.1326166591,
4,short,t1,6,E,distractor,0,0,0,0,3,0,3,0,0,5,5,5,,,,,2018_Nov_03_1642,10,rsvp,r,30.1326166591,
4,short,t1,7, ,mask,0,0,0,0,3,0,3,0,0,6,6,6,,,,,2018_Nov_03_1642,10,rsvp,r,30.1326166591,
4,short,t1,8,F,distractor,0,0,0,0,3,0,3,0,0,7,7,7,,,,,2018_Nov_03_1642,10,rsvp,r,30.1326166591,
4,short,t1,9,M,distractor,0,0,0,0,3,0,3,0,0,8,8,8,,,,,2018_Nov_03_1642,10,rsvp,r,30.1326166591,
4,short,t1,10,I,distractor,0,0,0,0,3,0,3,0,0,9,9,9,,,,,2018_Nov_03_1642,10,rsvp,r,30.1326166591,
4,short,t1,11,M,distractor,0,0,0,0,3,0,3,0,0,10,10,10,,,,,2018_Nov_03_1642,10,rsvp,r,30.1326166591,
4,short,t1,12,C,distractor,0,0,0,0,3,0,3,0,0,11,11,11,,,,,2018_Nov_03_1642,10,rsvp,r,30.1326166591,
4,short,t1,13,I,distractor,0,0,0,0,3,0,3,0,0,12,12,12,,,,,2018_Nov_03_1642,10,rsvp,r,30.1326166591,
4,short,t1,14,Z,distractor,0,0,0,0,3,0,3,0,0,13,13,13,,,,,2018_Nov_03_1642,10,rsvp,r,30.1326166591,
4,short,t1,15,W,distractor,0,0,0,0,3,0,3,0,0,14,14,14,,,,,2018_Nov_03_1642,10,rsvp,r,30.1326166591,
4,short,t1,16,A,distractor,0,0,0,0,3,0,3,0,0,15,15,15,,,,,2018_Nov_03_1642,10,rsvp,r,30.1326166591,
4,short,t1,17,L,distractor,0,0,0,0,3,0,3,0,0,16,16,16,,,,,2018_Nov_03_1642,10,rsvp,r,30.1326166591,
4,short,t1,18,P,distractor,0,0,0,0,3,0,3,0,0,17,17,17,,,,,2018_Nov_03_1642,10,rsvp,r,30.1326166591,
,,,,,,0,0,0,0,3,0,3,0,,,,,6,0.549657400001,6,0.1541803,2018_Nov_03_1642,10,rsvp,r,30.1326166591,
5,short,t1,1,W,distractor,0,0,0,0,4,0,4,0,0,0,0,0,,,,,2018_Nov_03_1642,10,rsvp,r,30.1326166591,
5,short,t1,2,W,distractor,0,0,0,0,4,0,4,0,0,1,1,1,,,,,2018_Nov_03_1642,10,rsvp,r,30.1326166591,
5,short,t1,3,D,distractor,0,0,0,0,4,0,4,0,0,2,2,2,,,,,2018_Nov_03_1642,10,rsvp,r,30.1326166591,
5,short,t1,4,D,distractor,0,0,0,0,4,0,4,0,0,3,3,3,,,,,2018_Nov_03_1642,10,rsvp,r,30.1326166591,
5,short,t1,5,U,distractor,0,0,0,0,4,0,4,0,0,4,4,4,,,,,2018_Nov_03_1642,10,rsvp,r,30.1326166591,
5,short,t1,6,C,distractor,0,0,0,0,4,0,4,0,0,5,5,5,,,,,2018_Nov_03_1642,10,rsvp,r,30.1326166591,
5,short,t1,7,X,distractor,0,0,0,0,4,0,4,0,0,6,6,6,,,,,2018_Nov_03_1642,10,rsvp,r,30.1326166591,
5,short,t1,8,Q,distractor,0,0,0,0,4,0,4,0,0,7,7,7,,,,,2018_Nov_03_1642,10,rsvp,r,30.1326166591,
5,short,t1,9,7,target,0,0,0,0,4,0,4,0,0,8,8,8,,,,,2018_Nov_03_1642,10,rsvp,r,30.1326166591,
5,short,t1,10,O,distractor,0,0,0,0,4,0,4,0,0,9,9,9,,,,,2018_Nov_03_1642,10,rsvp,r,30.1326166591,
5,short,t1,11,I,distractor,0,0,0,0,4,0,4,0,0,10,10,10,,,,,2018_Nov_03_1642,10,rsvp,r,30.1326166591,
5,short,t1,12,Z,distractor,0,0,0,0,4,0,4,0,0,11,11,11,,,,,2018_Nov_03_1642,10,rsvp,r,30.1326166591,
5,short,t1,13,E,distractor,0,0,0,0,4,0,4,0,0,12,12,12,,,,,2018_Nov_03_1642,10,rsvp,r,30.1326166591,
5,short,t1,14, ,mask,0,0,0,0,4,0,4,0,0,13,13,13,,,,,2018_Nov_03_1642,10,rsvp,r,30.1326166591,
5,short,t1,15,S,distractor,0,0,0,0,4,0,4,0,0,14,14,14,,,,,2018_Nov_03_1642,10,rsvp,r,30.1326166591,
,,,,,,0,0,0,0,4,0,4,0,,,,,7,0.3620175,7,0.1085069,2018_Nov_03_1642,10,rsvp,r,30.1326166591,
6,short,t2,1,X,distractor,0,0,0,0,5,0,5,0,0,0,0,0,,,,,2018_Nov_03_1642,10,rsvp,r,30.1326166591,
6,short,t2,2,K,distractor,0,0,0,0,5,0,5,0,0,1,1,1,,,,,2018_Nov_03_1642,10,rsvp,r,30.1326166591,
6,short,t2,3,B,distractor,0,0,0,0,5,0,5,0,0,2,2,2,,,,,2018_Nov_03_1642,10,rsvp,r,30.1326166591,
6,short,t2,4,D,distractor,0,0,0,0,5,0,5,0,0,3,3,3,,,,,2018_Nov_03_1642,10,rsvp,r,30.1326166591,
6,short,t2,5,T,distractor,0,0,0,0,5,0,5,0,0,4,4,4,,,,,2018_Nov_03_1642,10,rsvp,r,30.1326166591,
6,short,t2,6,1,target,0,0,0,0,5,0,5,0,0,5,5,5,,,,,2018_Nov_03_1642,10,rsvp,r,30.1326166591,
6,short,t2,7,Q,distractor,0,0,0,0,5,0,5,0,0,6,6,6,,,,,2018_Nov_03_1642,10,rsvp,r,30.1326166591,
6,short,t2,8,N,distractor,0,0,0,0,5,0,5,0,0,7,7,7,,,,,2018_Nov_03_1642,10,rsvp,r,30.1326166591,
6,short,t2,9,N,distractor,0,0,0,0,5,0,5,0,0,8,8,8,,,,,2018_Nov_03_1642,10,rsvp,r,30.1326166591,
6,short,t2,10,R,distractor,0,0,0,0,5,0,5,0,0,9,9,9,,,,,2018_Nov_03_1642,10,rsvp,r,30.1326166591,
6,short,t2,11,2,target,0,0,0,0,5,0,5,0,0,10,10,10,,,,,2018_Nov_03_1642,10,rsvp,r,30.1326166591,
6,short,t2,12,U,distractor,0,0,0,0,5,0,5,0,0,11,11,11,,,,,2018_Nov_03_1642,10,rsvp,r,30.1326166591,
6,short,t2,13,B,distractor,0,0,0,0,5,0,5,0,0,12,12,12,,,,,2018_Nov_03_1642,10,rsvp,r,30.1326166591,
6,short,t2,14,V,distractor,0,0,0,0,5,0,5,0,0,13,13,13,,,,,2018_Nov_03_1642,10,rsvp,r,30.1326166591,
6,short,t2,15,K,distractor,0,0,0,0,5,0,5,0,0,14,14,14,,,,,2018_Nov_03_1642,10,rsvp,r,30.1326166591,
6,short,t2,16,U,distractor,0,0,0,0,5,0,5,0,0,15,15,15,,,,,2018_Nov_03_1642,10,rsvp,r,30.1326166591,
6,short,t2,17,F,distractor,0,0,0,0,5,0,5,0,0,16,16,16,,,,,2018_Nov_03_1642,10,rsvp,r,30.1326166591,
,,,,,,0,0,0,0,5,0,5,0,,,,,8,0.458330099998,8,0.063981700001,2018_Nov_03_1642,10,rsvp,r,30.1326166591,
7,short,t1,1,L,distractor,0,0,0,0,6,0,6,0,0,0,0,0,,,,,2018_Nov_03_1642,10,rsvp,r,30.1326166591,
7,short,t1,2,P,distractor,0,0,0,0,6,0,6,0,0,1,1,1,,,,,2018_Nov_03_1642,10,rsvp,r,30.1326166591,
7,short,t1,3,7,target,0,0,0,0,6,0,6,0,0,2,2,2,,,,,2018_Nov_03_1642,10,rsvp,r,30.1326166591,
7,short,t1,4,U,distractor,0,0,0,0,6,0,6,0,0,3,3,3,,,,,2018_Nov_03_1642,10,rsvp,r,30.1326166591,
