trial,sep_dur,cond,Tx,stimulus,block,block.thisRepN,block.thisTrialN,block.thisN,block.thisIndex,trials.thisRepN,trials.thisTrialN,trials.thisN,trials.thisIndex,stim.thisRepN,stim.thisTrialN,stim.thisN,stim.thisIndex,usr_input_t1.keys,usr_input_t1.rt,usr_input_t2.keys,usr_input_t2.rt,date,frameRate,expName,session,participant,
1,long,target,t2,1,1,0,0,0,0,0,0,0,0,0,0,0,0,,,,,2018_Mar_12_1255,60.0046842605,test_experiment,001,1,
2,long,distractor,t2,X,1,0,0,0,0,0,0,0,0,0,1,1,1,,,,,2018_Mar_12_1255,60.0046842605,test_experiment,001,1,
3,long,distractor,t2,H,1,0,0,0,0,0,0,0,0,0,2,2,2,,,,,2018_Mar_12_1255,60.0046842605,test_experiment,001,1,
4,long,distractor,t2,R,1,0,0,0,0,0,0,0,0,0,3,3,3,,,,,2018_Mar_12_1255,60.0046842605,test_experiment,001,1,
5,long,distractor,t2,A,1,0,0,0,0,0,0,0,0,0,4,4,4,,,,,2018_Mar_12_1255,60.0046842605,test_experiment,001,1,
6,long,distractor,t2,C,1,0,0,0,0,0,0,0,0,0,5,5,5,,,,,2018_Mar_12_1255,60.0046842605,test_experiment,001,1,
7,long,distractor,t2,E,1,0,0,0,0,0,0,0,0,0,6,6,6,,,,,2018_Mar_12_1255,60.0046842605,test_experiment,001,1,
8,long,distractor,t2,I,1,0,0,0,0,0,0,0,0,0,7,7,7,,,,,2018_Mar_12_1255,60.0046842605,test_experiment,001,1,
9,long,target,t2,5,1,0,0,0,0,0,0,0,0,0,8,8,8,,,,,2018_Mar_12_1255,60.0046842605,test_experiment,001,1,
10,long,distractor,t2,V,1,0,0,0,0,0,0,0,0,0,9,9,9,,,,,2018_Mar_12_1255,60.0046842605,test_experiment,001,1,
11,long,distractor,t2,C,1,0,0,0,0,0,0,0,0,0,10,10,10,,,,,2018_Mar_12_1255,60.0046842605,test_experiment,001,1,
12,long,distractor,t2,O,1,0,0,0,0,0,0,0,0,0,11,11,11,,,,,2018_Mar_12_1255,60.0046842605,test_experiment,001,1,
13,long,distractor,t2,J,1,0,0,0,0,0,0,0,0,0,12,12,12,,,,,2018_Mar_12_1255,60.0046842605,test_experiment,001,1,
14,long,distractor,t2,Q,1,0,0,0,0,0,0,0,0,0,13,13,13,,,,,2018_Mar_12_1255,60.0046842605,test_experiment,001,1,
15,long,distractor,t2,F,1,0,0,0,0,0,0,0,0,0,14,14,14,,,,,2018_Mar_12_1255,60.0046842605,test_experiment,001,1,
,,,,,,0,0,0,0,0,0,0,0,,,,,1,0.433489784538,5,0.216790922575,2018_Mar_12_1255,60.0046842605,test_experiment,001,1,
1,short,distractor,t1,M,2,0,0,0,0,1,0,1,0,0,0,0,0,,,,,2018_Mar_12_1255,60.0046842605,test_experiment,001,1,
2,short,distractor,t1,S,2,0,0,0,0,1,0,1,0,0,1,1,1,,,,,2018_Mar_12_1255,60.0046842605,test_experiment,001,1,
3,short,distractor,t1,L,2,0,0,0,0,1,0,1,0,0,2,2,2,,,,,2018_Mar_12_1255,60.0046842605,test_experiment,001,1,
4,short,distractor,t1,J,2,0,0,0,0,1,0,1,0,0,3,3,3,,,,,2018_Mar_12_1255,60.0046842605,test_experiment,001,1,
5,short,distractor,t1,E,2,0,0,0,0,1,0,1,0,0,4,4,4,,,,,2018_Mar_12_1255,60.0046842605,test_experiment,001,1,
6,short,distractor,t1,G,2,0,0,0,0,1,0,1,0,0,5,5,5,,,,,2018_Mar_12_1255,60.0046842605,test_experiment,001,1,
7,short,distractor,t1,H,2,0,0,0,0,1,0,1,0,0,6,6,6,,,,,2018_Mar_12_1255,60.0046842605,test_experiment,001,1,
8,short,distractor,t1,K,2,0,0,0,0,1,0,1,0,0,7,7,7,,,,,2018_Mar_12_1255,60.0046842605,test_experiment,001,1,
9,short,target,t1,7,2,0,0,0,0,1,0,1,0,0,8,8,8,,,,,2018_Mar_12_1255,60.0046842605,test_experiment,001,1,
10,short,distractor,t1,I,2,0,0,0,0,1,0,1,0,0,9,9,9,,,,,2018_Mar_12_1255,60.0046842605,test_experiment,001,1,
11,short,distractor,t1,C,2,0,0,0,0,1,0,1,0,0,10,10,10,,,,,2018_Mar_12_1255,60.0046842605,test_experiment,001,1,
12,short,distractor,t1,T,2,0,0,0,0,1,0,1,0,0,11,11,11,,,,,2018_Mar_12_1255,60.0046842605,test_experiment,001,1,
13,short,mask,t1, ,2,0,0,0,0,1,0,1,0,0,12,12,12,,,,,2018_Mar_12_1255,60.0046842605,test_experiment,001,1,
14,short,distractor,t1,D,2,0,0,0,0,1,0,1,0,0,13,13,13,,,,,2018_Mar_12_1255,60.0046842605,test_experiment,001,1,
15,short,distractor,t1,S,2,0,0,0,0,1,0,1,0,0,14,14,14,,,,,2018_Mar_12_1255,60.0046842605,test_experiment,001,1,
16,short,distractor,t1,M,2,0,0,0,0,1,0,1,0,0,15,15,15,,,,,2018_Mar_12_1255,60.0046842605,test_experiment,001,1,
17,short,distractor,t1,G,2,0,0,0,0,1,0,1,0,0,16,16,16,,,,,2018_Mar_12_1255,60.0046842605,test_experiment,001,1,
18,short,distractor,t1,L,2,0,0,0,0,1,0,1,0,0,17,17,17,,,,,2018_Mar_12_1255,60.0046842605,test_experiment,001,1,
,,,,,,0,0,0,0,1,0,1,0,,,,,7,0.983471387966,2,0.466812304896,2018_Mar_12_1255,60.0046842605,test_experiment,001,1,
1,long,distractor,t2,D,3,0,0,0,0,2,0,2,0,0,0,0,0,,,,,2018_Mar_12_1255,60.0046842605,test_experiment,001,1,
2,long,distractor,t2,D,3,0,0,0,0,2,0,2,0,0,1,1,1,,,,,2018_Mar_12_1255,60.0046842605,test_experiment,001,1,
3,long,target,t2,1,3,0,0,0,0,2,0,2,0,0,2,2,2,,,,,2018_Mar_12_1255,60.0046842605,test_experiment,001,1,
4,long,distractor,t2,J,3,0,0,0,0,2,0,2,0,0,3,3,3,,,,,2018_Mar_12_1255,60.0046842605,test_experiment,001,1,
5,long,distractor,t2,J,3,0,0,0,0,2,0,2,0,0,4,4,4,,,,,2018_Mar_12_1255,60.0046842605,test_experiment,001,1,
6,long,distractor,t2,V,3,0,0,0,0,2,0,2,0,0,5,5,5,,,,,2018_Mar_12_1255,60.0046842605,test_experiment,001,1,
7,long,distractor,t2,U,3,0,0,0,0,2,0,2,0,0,6,6,6,,,,,2018_Mar_12_1255,60.0046842605,test_experiment,001,1,
8,long,distractor,t2,F,3,0,0,0,0,2,0,2,0,0,7,7,7,,,,,2018_Mar_12_1255,60.0046842605,test_experiment,001,1,
9,long,distractor,t2,V,3,0,0,0,0,2,0,2,0,0,8,8,8,,,,,2018_Mar_12_1255,60.0046842605,test_experiment,001,1,
10,long,distractor,t2,B,3,0,0,0,0,2,0,2,0,0,9,9,9,,,,,2018_Mar_12_1255,60.0046842605,test_experiment,001,1,
11,long,target,t2,7,3,0,0,0,0,2,0,2,0,0,10,10,10,,,,,2018_Mar_12_1255,60.0046842605,test_experiment,001,1,
12,long,distractor,t2,N,3,0,0,0,0,2,0,2,0,0,11,11,11,,,,,2018_Mar_12_1255,60.0046842605,test_experiment,001,1,
13,long,distractor,t2,C,3,0,0,0,0,2,0,2,0,0,12,12,12,,,,,2018_Mar_12_1255,60.0046842605,test_experiment,001,1,
14,long,distractor,t2,Y,3,0,0,0,0,2,0,2,0,0,13,13,13,,,,,2018_Mar_12_1255,60.0046842605,test_experiment,001,1,
15,long,distractor,t2,M,3,0,0,0,0,2,0,2,0,0,14,14,14,,,,,2018_Mar_12_1255,60.0046842605,test_experiment,001,1,
16,long,distractor,t2,W,3,0,0,0,0,2,0,2,0,0,15,15,15,,,,,2018_Mar_12_1255,60.0046842605,test_experiment,001,1,
,,,,,,0,0,0,0,2,0,2,0,,,,,1,0.583474871341,7,0.250124950511,2018_Mar_12_1255,60.0046842605,test_experiment,001,1,
1,long,distractor,t2,Y,4,0,0,0,0,3,0,3,0,0,0,0,0,,,,,2018_Mar_12_1255,60.0046842605,test_experiment,001,1,
2,long,distractor,t2,D,4,0,0,0,0,3,0,3,0,0,1,1,1,,,,,2018_Mar_12_1255,60.0046842605,test_experiment,001,1,
3,long,distractor,t2,N,4,0,0,0,0,3,0,3,0,0,2,2,2,,,,,2018_Mar_12_1255,60.0046842605,test_experiment,001,1,
4,long,distractor,t2,Y,4,0,0,0,0,3,0,3,0,0,3,3,3,,,,,2018_Mar_12_1255,60.0046842605,test_experiment,001,1,
5,long,distractor,t2,B,4,0,0,0,0,3,0,3,0,0,4,4,4,,,,,2018_Mar_12_1255,60.0046842605,test_experiment,001,1,
6,long,target,t2,6,4,0,0,0,0,3,0,3,0,0,5,5,5,,,,,2018_Mar_12_1255,60.0046842605,test_experiment,001,1,
7,long,distractor,t2,E,4,0,0,0,0,3,0,3,0,0,6,6,6,,,,,2018_Mar_12_1255,60.0046842605,test_experiment,001,1,
8,long,distractor,t2,V,4,0,0,0,0,3,0,3,0,0,7,7,7,,,,,2018_Mar_12_1255,60.0046842605,test_experiment,001,1,
9,long,distractor,t2,O,4,0,0,0,0,3,0,3,0,0,8,8,8,,,,,2018_Mar_12_1255,60.0046842605,test_experiment,001,1,
10,long,distractor,t2,H,4,0,0,0,0,3,0,3,0,0,9,9,9,,,,,2018_Mar_12_1255,60.0046842605,test_experiment,001,1,
11,long,distractor,t2,I,4,0,0,0,0,3,0,3,0,0,10,10,10,,,,,2018_Mar_12_1255,60.0046842605,test_experiment,001,1,
12,long,distractor,t2,Z,4,0,0,0,0,3,0,3,0,0,11,11,11,,,,,2018_Mar_12_1255,60.0046842605,test_experiment,001,1,
13,long,distractor,t2,O,4,0,0,0,0,3,0,3,0,0,12,12,12,,,,,2018_Mar_12_1255,60.0046842605,test_experiment,001,1,
14,long,target,t2,2,4,0,0,0,0,3,0,3,0,0,13,13,13,,,,,2018_Mar_12_1255,60.0046842605,test_experiment,001,1,
15,long,distractor,t2,F,4,0,0,0,0,3,0,3,0,0,14,14,14,,,,,2018_Mar_12_1255,60.0046842605,test_experiment,001,1,
16,long,distractor,t2,M,4,0,0,0,0,3,0,3,0,0,15,15,15,,,,,2018_Mar_12_1255,60.0046842605,test_experiment,001,1,
,,,,,,0,0,0,0,3,0,3,0,,,,,2,0.833332348449,6,0.283484481723,2018_Mar_12_1255,60.0046842605,test_experiment,001,1,
1,long,distractor,t2,V,5,0,0,0,0,4,0,4,0,0,0,0,0,,,,,2018_Mar_12_1255,60.0046842605,test_experiment,001,1,
2,long,distractor,t2,S,5,0,0,0,0,4,0,4,0,0,1,1,1,,,,,2018_Mar_12_1255,60.0046842605,test_experiment,001,1,
3,long,distractor,t2,P,5,0,0,0,0,4,0,4,0,0,2,2,2,,,,,2018_Mar_12_1255,60.0046842605,test_experiment,001,1,
4,long,distractor,t2,Q,5,0,0,0,0,4,0,4,0,0,3,3,3,,,,,2018_Mar_12_1255,60.0046842605,test_experiment,001,1,
5,long,distractor,t2,O,5,0,0,0,0,4,0,4,0,0,4,4,4,,,,,2018_Mar_12_1255,60.0046842605,test_experiment,001,1,
6,long,target,t2,4,5,0,0,0,0,4,0,4,0,0,5,5,5,,,,,2018_Mar_12_1255,60.0046842605,test_experiment,001,1,
7,long,distractor,t2,S,5,0,0,0,0,4,0,4,0,0,6,6,6,,,,,2018_Mar_12_1255,60.0046842605,test_experiment,001,1,
8,long,distractor,t2,R,5,0,0,0,0,4,0,4,0,0,7,7,7,,,,,2018_Mar_12_1255,60.0046842605,test_experiment,001,1,
9,long,distractor,t2,E,5,0,0,0,0,4,0,4,0,0,8,8,8,,,,,2018_Mar_12_1255,60.0046842605,test_experiment,001,1,
10,long,distractor,t2,Y,5,0,0,0,0,4,0,4,0,0,9,9,9,,,,,2018_Mar_12_1255,60.0046842605,test_experiment,001,1,
11,long,distractor,t2,Z,5,0,0,0,0,4,0,4,0,0,10,10,10,,,,,2018_Mar_12_1255,60.0046842605,test_experiment,001,1,
12,long,distractor,t2,J,5,0,0,0,0,4,0,4,0,0,11,11,11,,,,,2018_Mar_12_1255,60.0046842605,test_experiment,001,1,
13,long,distractor,t2,Q,5,0,0,0,0,4,0,4,0,0,12,12,12,,,,,2018_Mar_12_1255,60.0046842605,test_experiment,001,1,
14,long,target,t2,6,5,0,0,0,0,4,0,4,0,0,13,13,13,,,,,2018_Mar_12_1255,60.0046842605,test_experiment,001,1,
15,long,distractor,t2,V,5,0,0,0,0,4,0,4,0,0,14,14,14,,,,,2018_Mar_12_1255,60.0046842605,test_experiment,001,1,
16,long,distractor,t2,C,5,0,0,0,0,4,0,4,0,0,15,15,15,,,,,2018_Mar_12_1255,60.0046842605,test_experiment,001,1,
17,long,distractor,t2,W,5,0,0,0,0,4,0,4,0,0,16,16,16,,,,,2018_Mar_12_1255,60.0046842605,test_experiment,001,1,
,,,,,,0,0,0,0,4,0,4,0,,,,,4,0.466782758416,6,0.150223635754,2018_Mar_12_1255,60.0046842605,test_experiment,001,1,
1,short,distractor,t2,T,6,0,0,0,0,5,0,5,0,0,0,0,0,,,,,2018_Mar_12_1255,60.0046842605,test_experiment,001,1,
2,short,target,t2,8,6,0,0,0,0,5,0,5,0,0,1,1,1,,,,,2018_Mar_12_1255,60.0046842605,test_experiment,001,1,
3,short,distractor,t2,I,6,0,0,0,0,5,0,5,0,0,2,2,2,,,,,2018_Mar_12_1255,60.0046842605,test_experiment,001,1,
4,short,mask,t2, ,6,0,0,0,0,5,0,5,0,0,3,3,3,,,,,2018_Mar_12_1255,60.0046842605,test_experiment,001,1,
5,short,distractor,t2,D,6,0,0,0,0,5,0,5,0,0,4,4,4,,,,,2018_Mar_12_1255,60.0046842605,test_experiment,001,1,
6,short,target,t2,5,6,0,0,0,0,5,0,5,0,0,5,5,5,,,,,2018_Mar_12_1255,60.0046842605,test_experiment,001,1,
7,short,distractor,t2,D,6,0,0,0,0,5,0,5,0,0,6,6,6,,,,,2018_Mar_12_1255,60.0046842605,test_experiment,001,1,
8,short,distractor,t2,S,6,0,0,0,0,5,0,5,0,0,7,7,7,,,,,2018_Mar_12_1255,60.0046842605,test_experiment,001,1,
9,short,distractor,t2,R,6,0,0,0,0,5,0,5,0,0,8,8,8,,,,,2018_Mar_12_1255,60.0046842605,test_experiment,001,1,
10,short,distractor,t2,H,6,0,0,0,0,5,0,5,0,0,9,9,9,,,,,2018_Mar_12_1255,60.0046842605,test_experiment,001,1,
11,short,distractor,t2,J,6,0,0,0,0,5,0,5,0,0,10,10,10,,,,,2018_Mar_12_1255,60.0046842605,test_experiment,001,1,
12,short,distractor,t2,D,6,0,0,0,0,5,0,5,0,0,11,11,11,,,,,2018_Mar_12_1255,60.0046842605,test_experiment,001,1,
13,short,distractor,t2,F,6,0,0,0,0,5,0,5,0,0,12,12,12,,,,,2018_Mar_12_1255,60.0046842605,test_experiment,001,1,
14,short,distractor,t2,N,6,0,0,0,0,5,0,5,0,0,13,13,13,,,,,2018_Mar_12_1255,60.0046842605,test_experiment,001,1,
15,short,distractor,t2,P,6,0,0,0,0,5,0,5,0,0,14,14,14,,,,,2018_Mar_12_1255,60.0046842605,test_experiment,001,1,
,,,,,,0,0,0,0,5,0,5,0,,,,,8,1.76672805078,9,0.916752947573,2018_Mar_12_1255,60.0046842605,test_experiment,001,1,
1,long,distractor,t2,A,7,0,0,0,0,6,0,6,0,0,0,0,0,,,,,2018_Mar_12_1255,60.0046842605,test_experiment,001,1,
2,long,distractor,t2,G,7,0,0,0,0,6,0,6,0,0,1,1,1,,,,,2018_Mar_12_1255,60.0046842605,test_experiment,001,1,
3,long,distractor,t2,H,7,0,0,0,0,6,0,6,0,0,2,2,2,,,,,2018_Mar_12_1255,60.0046842605,test_experiment,001,1,
4,long,target,t2,1,7,0,0,0,0,6,0,6,0,0,3,3,3,,,,,2018_Mar_12_1255,60.0046842605,test_experiment,001,1,
5,long,distractor,t2,L,7,0,0,0,0,6,0,6,0,0,4,4,4,,,,,2018_Mar_12_1255,60.0046842605,test_experiment,001,1,
6,long,distractor,t2,P,7,0,0,0,0,6,0,6,0,0,5,5,5,,,,,2018_Mar_12_1255,60.0046842605,test_experiment,001,1,
7,long,distractor,t2,Z,7,0,0,0,0,6,0,6,0,0,6,6,6,,,,,2018_Mar_12_1255,60.0046842605,test_experiment,001,1,
8,long,distractor,t2,Y,7,0,0,0,0,6,0,6,0,0,7,7,7,,,,,2018_Mar_12_1255,60.0046842605,test_experiment,001,1,
9,long,distractor,t2,B,7,0,0,0,0,6,0,6,0,0,8,8,8,,,,,2018_Mar_12_1255,60.0046842605,test_experiment,001,1,
10,long,distractor,t2,G,7,0,0,0,0,6,0,6,0,0,9,9,9,,,,,2018_Mar_12_1255,60.0046842605,test_experiment,001,1,
11,long,distractor,t2,E,7,0,0,0,0,6,0,6,0,0,10,10,10,,,,,2018_Mar_12_1255,60.0046842605,test_experiment,001,1,
12,long,target,t2,5,7,0,0,0,0,6,0,6,0,0,11,11,11,,,,,2018_Mar_12_1255,60.0046842605,test_experiment,001,1,
13,long,distractor,t2,V,7,0,0,0,0,6,0,6,0,0,12,12,12,,,,,2018_Mar_12_1255,60.0046842605,test_experiment,001,1,
14,long,mask,t2, ,7,0,0,0,0,6,0,6,0,0,13,13,13,,,,,2018_Mar_12_1255,60.0046842605,test_experiment,001,1,
15,long,distractor,t2,U,7,0,0,0,0,6,0,6,0,0,14,14,14,,,,,2018_Mar_12_1255,60.0046842605,test_experiment,001,1,
16,long,distractor,t2,R,7,0,0,0,0,6,0,6,0,0,15,15,15,,,,,2018_Mar_12_1255,60.0046842605,test_experiment,001,1,
,,,,,,0,0,0,0,6,0,6,0,,,,,1,0.300195037871,4,0.166786148486,2018_Mar_12_1255,60.0046842605,test_experiment,001,1,
1,short,distractor,t2,F,8,0,0,0,0,7,0,7,0,0,0,0,0,,,,,2018_Mar_12_1255,60.0046842605,test_experiment,001,1,
2,short,distractor,t2,F,8,0,0,0,0,7,0,7,0,0,1,1,1,,,,,2018_Mar_12_1255,60.0046842605,test_experiment,001,1,
3,short,distractor,t2,N,8,0,0,0,0,7,0,7,0,0,2,2,2,,,,,2018_Mar_12_1255,60.0046842605,test_experiment,001,1,
4,short,distractor,t2,C,8,0,0,0,0,7,0,7,0,0,3,3,3,,,,,2018_Mar_12_1255,60.0046842605,test_experiment,001,1,
5,short,mask,t2, ,8,0,0,0,0,7,0,7,0,0,4,4,4,,,,,2018_Mar_12_1255,60.0046842605,test_experiment,001,1,
6,short,distractor,t2,E,8,0,0,0,0,7,0,7,0,0,5,5,5,,,,,2018_Mar_12_1255,60.0046842605,test_experiment,001,1,
7,short,distractor,t2,T,8,0,0,0,0,7,0,7,0,0,6,6,6,,,,,2018_Mar_12_1255,60.0046842605,test_experiment,001,1,
8,short,target,t2,4,8,0,0,0,0,7,0,7,0,0,7,7,7,,,,,2018_Mar_12_1255,60.0046842605,test_experiment,001,1,
9,short,distractor,t2,M,8,0,0,0,0,7,0,7,0,0,8,8,8,,,,,2018_Mar_12_1255,60.0046842605,test_experiment,001,1,
10,short,distractor,t2,O,8,0,0,0,0,7,0,7,0,0,9,9,9,,,,,2018_Mar_12_1255,60.0046842605,test_experiment,001,1,
11,short,distractor,t2,I,8,0,0,0,0,7,0,7,0,0,10,10,10,,,,,2018_Mar_12_1255,60.0046842605,test_experiment,001,1,
12,short,target,t2,7,8,0,0,0,0,7,0,7,0,0,11,11,11,,,,,2018_Mar_12_1255,60.0046842605,test_experiment,001,1,
13,short,distractor,t2,R,8,0,0,0,0,7,0,7,0,0,12,12,12,,,,,2018_Mar_12_1255,60.0046842605,test_experiment,001,1,
14,short,distractor,t2,G,8,0,0,0,0,7,0,7,0,0,13,13,13,,,,,2018_Mar_12_1255,60.0046842605,test_experiment,001,1,
15,short,distractor,t2,A,8,0,0,0,0,7,0,7,0,0,14,14,14,,,,,2018_Mar_12_1255,60.0046842605,test_experiment,001,1,
16,short,distractor,t2,E,8,0,0,0,0,7,0,7,0,0,15,15,15,,,,,2018_Mar_12_1255,60.0046842605,test_experiment,001,1,
17,short,distractor,t2,F,8,0,0,0,0,7,0,7,0,0,16,16,16,,,,,2018_Mar_12_1255,60.0046842605,test_experiment,001,1,
,,,,,,0,0,0,0,7,0,7,0,,,,,4,1.95004903161,7,0.450158664598,2018_Mar_12_1255,60.0046842605,test_experiment,001,1,
1,short,distractor,t1,F,9,0,0,0,0,8,0,8,0,0,0,0,0,,,,,2018_Mar_12_1255,60.0046842605,test_experiment,001,1,
2,short,distractor,t1,V,9,0,0,0,0,8,0,8,0,0,1,1,1,,,,,2018_Mar_12_1255,60.0046842605,test_experiment,001,1,
3,short,distractor,t1,Y,9,0,0,0,0,8,0,8,0,0,2,2,2,,,,,2018_Mar_12_1255,60.0046842605,test_experiment,001,1,
4,short,distractor,t1,O,9,0,0,0,0,8,0,8,0,0,3,3,3,,,,,2018_Mar_12_1255,60.0046842605,test_experiment,001,1,
5,short,distractor,t1,B,9,0,0,0,0,8,0,8,0,0,4,4,4,,,,,2018_Mar_12_1255,60.0046842605,test_experiment,001,1,
6,short,distractor,t1,V,9,0,0,0,0,8,0,8,0,0,5,5,5,,,,,2018_Mar_12_1255,60.0046842605,test_experiment,001,1,
7,short,distractor,t1,Z,9,0,0,0,0,8,0,8,0,0,6,6,6,,,,,2018_Mar_12_1255,60.0046842605,test_experiment,001,1,
8,short,distractor,t1,C,9,0,0,0,0,8,0,8,0,0,7,7,7,,,,,2018_Mar_12_1255,60.0046842605,test_experiment,001,1,
9,short,target,t1,3,9,0,0,0,0,8,0,8,0,0,8,8,8,,,,,2018_Mar_12_1255,60.0046842605,test_experiment,001,1,
10,short,distractor,t1,R,9,0,0,0,0,8,0,8,0,0,9,9,9,,,,,2018_Mar_12_1255,60.0046842605,test_experiment,001,1,
11,short,distractor,t1,Q,9,0,0,0,0,8,0,8,0,0,10,10,10,,,,,2018_Mar_12_1255,60.0046842605,test_experiment,001,1,
12,short,distractor,t1,H,9,0,0,0,0,8,0,8,0,0,11,11,11,,,,,2018_Mar_12_1255,60.0046842605,test_experiment,001,1,
13,short,mask,t1, ,9,0,0,0,0,8,0,8,0,0,12,12,12,,,,,2018_Mar_12_1255,60.0046842605,test_experiment,001,1,
14,short,distractor,t1,F,9,0,0,0,0,8,0,8,0,0,13,13,13,,,,,2018_Mar_12_1255,60.0046842605,test_experiment,001,1,
15,short,distractor,t1,B,9,0,0,0,0,8,0,8,0,0,14,14,14,,,,,2018_Mar_12_1255,60.0046842605,test_experiment,001,1,
,,,,,,0,0,0,0,8,0,8,0,,,,,5,1.41679198003,3,0.183491106352,2018_Mar_12_1255,60.0046842605,test_experiment,001,1,
1,short,distractor,t2,A,10,0,0,0,0,9,0,9,0,0,0,0,0,,,,,2018_Mar_12_1255,60.0046842605,test_experiment,001,1,
2,short,distractor,t2,C,10,0,0,0,0,9,0,9,0,0,1,1,1,,,,,2018_Mar_12_1255,60.0046842605,test_experiment,001,1,
3,short,distractor,t2,R,10,0,0,0,0,9,0,9,0,0,2,2,2,,,,,2018_Mar_12_1255,60.0046842605,test_experiment,001,1,
4,short,distractor,t2,Q,10,0,0,0,0,9,0,9,0,0,3,3,3,,,,,2018_Mar_12_1255,60.0046842605,test_experiment,001,1,
5,short,distractor,t2,I,10,0,0,0,0,9,0,9,0,0,4,4,4,,,,,2018_Mar_12_1255,60.0046842605,test_experiment,001,1,
6,short,distractor,t2,Q,10,0,0,0,0,9,0,9,0,0,5,5,5,,,,,2018_Mar_12_1255,60.0046842605,test_experiment,001,1,
7,short,distractor,t2,V,10,0,0,0,0,9,0,9,0,0,6,6,6,,,,,2018_Mar_12_1255,60.0046842605,test_experiment,001,1,
8,short,distractor,t2,I,10,0,0,0,0,9,0,9,0,0,7,7,7,,,,,2018_Mar_12_1255,60.0046842605,test_experiment,001,1,
9,short,distractor,t2,P,10,0,0,0,0,9,0,9,0,0,8,8,8,,,,,2018_Mar_12_1255,60.0046842605,test_experiment,001,1,
10,short,distractor,t2,J,10,0,0,0,0,9,0,9,0,0,9,9,9,,,,,2018_Mar_12_1255,60.0046842605,test_experiment,001,1,
11,short,target,t2,3,10,0,0,0,0,9,0,9,0,0,10,10,10,,,,,2018_Mar_12_1255,60.0046842605,test_experiment,001,1,
12,short,distractor,t2,D,10,0,0,0,0,9,0,9,0,0,11,11,11,,,,,2018_Mar_12_1255,60.0046842605,test_experiment,001,1,
13,short,distractor,t2,F,10,0,0,0,0,9,0,9,0,0,12,12,12,,,,,2018_Mar_12_1255,60.0046842605,test_experiment,001,1,
14,short,distractor,t2,R,10,0,0,0,0,9,0,9,0,0,13,13,13,,,,,2018_Mar_12_1255,60.0046842605,test_experiment,001,1,
15,short,target,t2,8,10,0,0,0,0,9,0,9,0,0,14,14,14,,,,,2018_Mar_12_1255,60.0046842605,test_experiment,001,1,
16,short,distractor,t2,H,10,0,0,0,0,9,0,9,0,0,15,15,15,,,,,2018_Mar_12_1255,60.0046842605,test_experiment,001,1,
17,short,distractor,t2,T,10,0,0,0,0,9,0,9,0,0,16,16,16,,,,,2018_Mar_12_1255,60.0046842605,test_experiment,001,1,
18,short,distractor,t2,V,10,0,0,0,0,9,0,9,0,0,17,17,17,,,,,2018_Mar_12_1255,60.0046842605,test_experiment,001,1,
,,,,,,0,0,0,0,9,0,9,0,,,,,7,0.8001317462,9,0.133444967192,2018_Mar_12_1255,60.0046842605,test_experiment,001,1,
1,short,distractor,t1,Z,11,0,0,0,0,10,0,10,0,0,0,0,0,,,,,2018_Mar_12_1255,60.0046842605,test_experiment,001,1,
2,short,distractor,t1,U,11,0,0,0,0,10,0,10,0,0,1,1,1,,,,,2018_Mar_12_1255,60.0046842605,test_experiment,001,1,
3,short,distractor,t1,X,11,0,0,0,0,10,0,10,0,0,2,2,2,,,,,2018_Mar_12_1255,60.0046842605,test_experiment,001,1,
4,short,distractor,t1,J,11,0,0,0,0,10,0,10,0,0,3,3,3,,,,,2018_Mar_12_1255,60.0046842605,test_experiment,001,1,
5,short,distractor,t1,P,11,0,0,0,0,10,0,10,0,0,4,4,4,,,,,2018_Mar_12_1255,60.0046842605,test_experiment,001,1,
6,short,distractor,t1,B,11,0,0,0,0,10,0,10,0,0,5,5,5,,,,,2018_Mar_12_1255,60.0046842605,test_experiment,001,1,
7,short,distractor,t1,I,11,0,0,0,0,10,0,10,0,0,6,6,6,,,,,2018_Mar_12_1255,60.0046842605,test_experiment,001,1,
8,short,target,t1,6,11,0,0,0,0,10,0,10,0,0,7,7,7,,,,,2018_Mar_12_1255,60.0046842605,test_experiment,001,1,
9,short,distractor,t1,Z,11,0,0,0,0,10,0,10,0,0,8,8,8,,,,,2018_Mar_12_1255,60.0046842605,test_experiment,001,1,
10,short,distractor,t1,R,11,0,0,0,0,10,0,10,0,0,9,9,9,,,,,2018_Mar_12_1255,60.0046842605,test_experiment,001,1,
11,short,distractor,t1,G,11,0,0,0,0,10,0,10,0,0,10,10,10,,,,,2018_Mar_12_1255,60.0046842605,test_experiment,001,1,
12,short,mask,t1, ,11,0,0,0,0,10,0,10,0,0,11,11,11,,,,,2018_Mar_12_1255,60.0046842605,test_experiment,001,1,
13,short,distractor,t1,Q,11,0,0,0,0,10,0,10,0,0,12,12,12,,,,,2018_Mar_12_1255,60.0046842605,test_experiment,001,1,
14,short,distractor,t1,M,11,0,0,0,0,10,0,10,0,0,13,13,13,,,,,2018_Mar_12_1255,60.0046842605,test_experiment,001,1,
15,short,distractor,t1,Y,11,0,0,0,0,10,0,10,0,0,14,14,14,,,,,2018_Mar_12_1255,60.0046842605,test_experiment,001,1,
,,,,,,0,0,0,0,10,0,10,0,,,,,5,0.73346866658,6,0.100164122921,2018_Mar_12_1255,60.0046842605,test_experiment,001,1,
1,short,distractor,t1,D,12,0,0,0,0,11,0,11,0,0,0,0,0,,,,,2018_Mar_12_1255,60.0046842605,test_experiment,001,1,
2,short,distractor,t1,C,12,0,0,0,0,11,0,11,0,0,1,1,1,,,,,2018_Mar_12_1255,60.0046842605,test_experiment,001,1,
3,short,distractor,t1,G,12,0,0,0,0,11,0,11,0,0,2,2,2,,,,,2018_Mar_12_1255,60.0046842605,test_experiment,001,1,
4,short,distractor,t1,W,12,0,0,0,0,11,0,11,0,0,3,3,3,,,,,2018_Mar_12_1255,60.0046842605,test_experiment,001,1,
5,short,distractor,t1,N,12,0,0,0,0,11,0,11,0,0,4,4,4,,,,,2018_Mar_12_1255,60.0046842605,test_experiment,001,1,
6,short,distractor,t1,L,12,0,0,0,0,11,0,11,0,0,5,5,5,,,,,2018_Mar_12_1255,60.0046842605,test_experiment,001,1,
7,short,distractor,t1,E,12,0,0,0,0,11,0,11,0,0,6,6,6,,,,,2018_Mar_12_1255,60.0046842605,test_experiment,001,1,
8,short,distractor,t1,N,12,0,0,0,0,11,0,11,0,0,7,7,7,,,,,2018_Mar_12_1255,60.0046842605,test_experiment,001,1,
9,short,target,t1,5,12,0,0,0,0,11,0,11,0,0,8,8,8,,,,,2018_Mar_12_1255,60.0046842605,test_experiment,001,1,
10,short,distractor,t1,Y,12,0,0,0,0,11,0,11,0,0,9,9,9,,,,,2018_Mar_12_1255,60.0046842605,test_experiment,001,1,
11,short,distractor,t1,O,12,0,0,0,0,11,0,11,0,0,10,10,10,,,,,2018_Mar_12_1255,60.0046842605,test_experiment,001,1,
12,short,distractor,t1,T,12,0,0,0,0,11,0,11,0,0,11,11,11,,,,,2018_Mar_12_1255,60.0046842605,test_experiment,001,1,
13,short,mask,t1, ,12,0,0,0,0,11,0,11,0,0,12,12,12,,,,,2018_Mar_12_1255,60.0046842605,test_experiment,001,1,
14,short,distractor,t1,K,12,0,0,0,0,11,0,11,0,0,13,13,13,,,,,2018_Mar_12_1255,60.0046842605,test_experiment,001,1,
15,short,distractor,t1,Y,12,0,0,0,0,11,0,11,0,0,14,14,14,,,,,2018_Mar_12_1255,60.0046842605,test_experiment,001,1,
,,,,,,0,0,0,0,11,0,11,0,,,,,3,0.316813222393,4,0.0835223012164,2018_Mar_12_1255,60.0046842605,test_experiment,001,1,
1,long,distractor,t2,O,13,0,0,0,0,12,0,12,0,0,0,0,0,,,,,2018_Mar_12_1255,60.0046842605,test_experiment,001,1,
2,long,distractor,t2,D,13,0,0,0,0,12,0,12,0,0,1,1,1,,,,,2018_Mar_12_1255,60.0046842605,test_experiment,001,1,
3,long,distractor,t2,J,13,0,0,0,0,12,0,12,0,0,2,2,2,,,,,2018_Mar_12_1255,60.0046842605,test_experiment,001,1,
4,long,distractor,t2,V,13,0,0,0,0,12,0,12,0,0,3,3,3,,,,,2018_Mar_12_1255,60.0046842605,test_experiment,001,1,
5,long,distractor,t2,I,13,0,0,0,0,12,0,12,0,0,4,4,4,,,,,2018_Mar_12_1255,60.0046842605,test_experiment,001,1,
6,long,target,t2,8,13,0,0,0,0,12,0,12,0,0,5,5,5,,,,,2018_Mar_12_1255,60.0046842605,test_experiment,001,1,
7,long,distractor,t2,A,13,0,0,0,0,12,0,12,0,0,6,6,6,,,,,2018_Mar_12_1255,60.0046842605,test_experiment,001,1,
8,long,distractor,t2,P,13,0,0,0,0,12,0,12,0,0,7,7,7,,,,,2018_Mar_12_1255,60.0046842605,test_experiment,001,1,
9,long,distractor,t2,H,13,0,0,0,0,12,0,12,0,0,8,8,8,,,,,2018_Mar_12_1255,60.0046842605,test_experiment,001,1,
10,long,distractor,t2,W,13,0,0,0,0,12,0,12,0,0,9,9,9,,,,,2018_Mar_12_1255,60.0046842605,test_experiment,001,1,
11,long,distractor,t2,V,13,0,0,0,0,12,0,12,0,0,10,10,10,,,,,2018_Mar_12_1255,60.0046842605,test_experiment,001,1,
12,long,distractor,t2,S,13,0,0,0,0,12,0,12,0,0,11,11,11,,,,,2018_Mar_12_1255,60.0046842605,test_experiment,001,1,
13,long,distractor,t2,A,13,0,0,0,0,12,0,12,0,0,12,12,12,,,,,2018_Mar_12_1255,60.0046842605,test_experiment,001,1,
14,long,target,t2,4,13,0,0,0,0,12,0,12,0,0,13,13,13,,,,,2018_Mar_12_1255,60.0046842605,test_experiment,001,1,
15,long,distractor,t2,R,13,0,0,0,0,12,0,12,0,0,14,14,14,,,,,2018_Mar_12_1255,60.0046842605,test_experiment,001,1,
16,long,distractor,t2,C,13,0,0,0,0,12,0,12,0,0,15,15,15,,,,,2018_Mar_12_1255,60.0046842605,test_experiment,001,1,
17,long,distractor,t2,O,13,0,0,0,0,12,0,12,0,0,16,16,16,,,,,2018_Mar_12_1255,60.0046842605,test_experiment,001,1,
18,long,distractor,t2,Q,13,0,0,0,0,12,0,12,0,0,17,17,17,,,,,2018_Mar_12_1255,60.0046842605,test_experiment,001,1,
,,,,,,0,0,0,0,12,0,12,0,,,,,4,0.483455992695,6,0.266813424552,2018_Mar_12_1255,60.0046842605,test_experiment,001,1,
1,short,distractor,t1,Y,14,0,0,0,0,13,0,13,0,0,0,0,0,,,,,2018_Mar_12_1255,60.0046842605,test_experiment,001,1,
2,short,target,t1,8,14,0,0,0,0,13,0,13,0,0,1,1,1,,,,,2018_Mar_12_1255,60.0046842605,test_experiment,001,1,
3,short,distractor,t1,G,14,0,0,0,0,13,0,13,0,0,2,2,2,,,,,2018_Mar_12_1255,60.0046842605,test_experiment,001,1,
4,short,distractor,t1,J,14,0,0,0,0,13,0,13,0,0,3,3,3,,,,,2018_Mar_12_1255,60.0046842605,test_experiment,001,1,
5,short,distractor,t1,W,14,0,0,0,0,13,0,13,0,0,4,4,4,,,,,2018_Mar_12_1255,60.0046842605,test_experiment,001,1,
6,short,mask,t1, ,14,0,0,0,0,13,0,13,0,0,5,5,5,,,,,2018_Mar_12_1255,60.0046842605,test_experiment,001,1,
7,short,distractor,t1,P,14,0,0,0,0,13,0,13,0,0,6,6,6,,,,,2018_Mar_12_1255,60.0046842605,test_experiment,001,1,
8,short,distractor,t1,C,14,0,0,0,0,13,0,13,0,0,7,7,7,,,,,2018_Mar_12_1255,60.0046842605,test_experiment,001,1,
9,short,distractor,t1,S,14,0,0,0,0,13,0,13,0,0,8,8,8,,,,,2018_Mar_12_1255,60.0046842605,test_experiment,001,1,
10,short,distractor,t1,X,14,0,0,0,0,13,0,13,0,0,9,9,9,,,,,2018_Mar_12_1255,60.0046842605,test_experiment,001,1,
11,short,distractor,t1,F,14,0,0,0,0,13,0,13,0,0,10,10,10,,,,,2018_Mar_12_1255,60.0046842605,test_experiment,001,1,
12,short,distractor,t1,G,14,0,0,0,0,13,0,13,0,0,11,11,11,,,,,2018_Mar_12_1255,60.0046842605,test_experiment,001,1,
13,short,distractor,t1,P,14,0,0,0,0,13,0,13,0,0,12,12,12,,,,,2018_Mar_12_1255,60.0046842605,test_experiment,001,1,
14,short,distractor,t1,R,14,0,0,0,0,13,0,13,0,0,13,13,13,,,,,2018_Mar_12_1255,60.0046842605,test_experiment,001,1,
15,short,distractor,t1,G,14,0,0,0,0,13,0,13,0,0,14,14,14,,,,,2018_Mar_12_1255,60.0046842605,test_experiment,001,1,
16,short,distractor,t1,W,14,0,0,0,0,13,0,13,0,0,15,15,15,,,,,2018_Mar_12_1255,60.0046842605,test_experiment,001,1,
17,short,distractor,t1,U,14,0,0,0,0,13,0,13,0,0,16,16,16,,,,,2018_Mar_12_1255,60.0046842605,test_experiment,001,1,
,,,,,,0,0,0,0,13,0,13,0,,,,,6,0.450184167876,5,0.666827047035,2018_Mar_12_1255,60.0046842605,test_experiment,001,1,
1,long,distractor,t2,B,15,0,0,0,0,14,0,14,0,0,0,0,0,,,,,2018_Mar_12_1255,60.0046842605,test_experiment,001,1,
2,long,distractor,t2,G,15,0,0,0,0,14,0,14,0,0,1,1,1,,,,,2018_Mar_12_1255,60.0046842605,test_experiment,001,1,
3,long,target,t2,8,15,0,0,0,0,14,0,14,0,0,2,2,2,,,,,2018_Mar_12_1255,60.0046842605,test_experiment,001,1,
4,long,distractor,t2,I,15,0,0,0,0,14,0,14,0,0,3,3,3,,,,,2018_Mar_12_1255,60.0046842605,test_experiment,001,1,
5,long,distractor,t2,Q,15,0,0,0,0,14,0,14,0,0,4,4,4,,,,,2018_Mar_12_1255,60.0046842605,test_experiment,001,1,
6,long,distractor,t2,V,15,0,0,0,0,14,0,14,0,0,5,5,5,,,,,2018_Mar_12_1255,60.0046842605,test_experiment,001,1,
7,long,distractor,t2,Q,15,0,0,0,0,14,0,14,0,0,6,6,6,,,,,2018_Mar_12_1255,60.0046842605,test_experiment,001,1,
8,long,distractor,t2,L,15,0,0,0,0,14,0,14,0,0,7,7,7,,,,,2018_Mar_12_1255,60.0046842605,test_experiment,001,1,
9,long,distractor,t2,I,15,0,0,0,0,14,0,14,0,0,8,8,8,,,,,2018_Mar_12_1255,60.0046842605,test_experiment,001,1,
10,long,distractor,t2,T,15,0,0,0,0,14,0,14,0,0,9,9,9,,,,,2018_Mar_12_1255,60.0046842605,test_experiment,001,1,
11,long,target,t2,3,15,0,0,0,0,14,0,14,0,0,10,10,10,,,,,2018_Mar_12_1255,60.0046842605,test_experiment,001,1,
12,long,distractor,t2,V,15,0,0,0,0,14,0,14,0,0,11,11,11,,,,,2018_Mar_12_1255,60.0046842605,test_experiment,001,1,
13,long,distractor,t2,W,15,0,0,0,0,14,0,14,0,0,12,12,12,,,,,2018_Mar_12_1255,60.0046842605,test_experiment,001,1,
14,long,distractor,t2,K,15,0,0,0,0,14,0,14,0,0,13,13,13,,,,,2018_Mar_12_1255,60.0046842605,test_experiment,001,1,
15,long,distractor,t2,Y,15,0,0,0,0,14,0,14,0,0,14,14,14,,,,,2018_Mar_12_1255,60.0046842605,test_experiment,001,1,
16,long,distractor,t2,V,15,0,0,0,0,14,0,14,0,0,15,15,15,,,,,2018_Mar_12_1255,60.0046842605,test_experiment,001,1,
17,long,distractor,t2,E,15,0,0,0,0,14,0,14,0,0,16,16,16,,,,,2018_Mar_12_1255,60.0046842605,test_experiment,001,1,
,,,,,,0,0,0,0,14,0,14,0,,,,,3,0.933435201305,6,0.450141869756,2018_Mar_12_1255,60.0046842605,test_experiment,001,1,
1,short,distractor,t1,T,16,0,0,0,0,15,0,15,0,0,0,0,0,,,,,2018_Mar_12_1255,60.0046842605,test_experiment,001,1,
2,short,distractor,t1,S,16,0,0,0,0,15,0,15,0,0,1,1,1,,,,,2018_Mar_12_1255,60.0046842605,test_experiment,001,1,
3,short,distractor,t1,I,16,0,0,0,0,15,0,15,0,0,2,2,2,,,,,2018_Mar_12_1255,60.0046842605,test_experiment,001,1,
4,short,distractor,t1,U,16,0,0,0,0,15,0,15,0,0,3,3,3,,,,,2018_Mar_12_1255,60.0046842605,test_experiment,001,1,
5,short,distractor,t1,I,16,0,0,0,0,15,0,15,0,0,4,4,4,,,,,2018_Mar_12_1255,60.0046842605,test_experiment,001,1,
6,short,distractor,t1,F,16,0,0,0,0,15,0,15,0,0,5,5,5,,,,,2018_Mar_12_1255,60.0046842605,test_experiment,001,1,
7,short,target,t1,2,16,0,0,0,0,15,0,15,0,0,6,6,6,,,,,2018_Mar_12_1255,60.0046842605,test_experiment,001,1,
8,short,distractor,t1,S,16,0,0,0,0,15,0,15,0,0,7,7,7,,,,,2018_Mar_12_1255,60.0046842605,test_experiment,001,1,
9,short,distractor,t1,H,16,0,0,0,0,15,0,15,0,0,8,8,8,,,,,2018_Mar_12_1255,60.0046842605,test_experiment,001,1,
10,short,distractor,t1,L,16,0,0,0,0,15,0,15,0,0,9,9,9,,,,,2018_Mar_12_1255,60.0046842605,test_experiment,001,1,
11,short,mask,t1, ,16,0,0,0,0,15,0,15,0,0,10,10,10,,,,,2018_Mar_12_1255,60.0046842605,test_experiment,001,1,
12,short,distractor,t1,Q,16,0,0,0,0,15,0,15,0,0,11,11,11,,,,,2018_Mar_12_1255,60.0046842605,test_experiment,001,1,
13,short,distractor,t1,X,16,0,0,0,0,15,0,15,0,0,12,12,12,,,,,2018_Mar_12_1255,60.0046842605,test_experiment,001,1,
14,short,distractor,t1,T,16,0,0,0,0,15,0,15,0,0,13,13,13,,,,,2018_Mar_12_1255,60.0046842605,test_experiment,001,1,
15,short,distractor,t1,K,16,0,0,0,0,15,0,15,0,0,14,14,14,,,,,2018_Mar_12_1255,60.0046842605,test_experiment,001,1,
16,short,distractor,t1,L,16,0,0,0,0,15,0,15,0,0,15,15,15,,,,,2018_Mar_12_1255,60.0046842605,test_experiment,001,1,
17,short,distractor,t1,U,16,0,0,0,0,15,0,15,0,0,16,16,16,,,,,2018_Mar_12_1255,60.0046842605,test_experiment,001,1,
,,,,,,0,0,0,0,15,0,15,0,,,,,8,2.36673619938,7,0.252976030341,2018_Mar_12_1255,60.0046842605,test_experiment,001,1,
1,long,distractor,t2,Y,17,0,0,0,0,16,0,16,0,0,0,0,0,,,,,2018_Mar_12_1255,60.0046842605,test_experiment,001,1,
2,long,distractor,t2,I,17,0,0,0,0,16,0,16,0,0,1,1,1,,,,,2018_Mar_12_1255,60.0046842605,test_experiment,001,1,
3,long,target,t2,5,17,0,0,0,0,16,0,16,0,0,2,2,2,,,,,2018_Mar_12_1255,60.0046842605,test_experiment,001,1,
4,long,distractor,t2,E,17,0,0,0,0,16,0,16,0,0,3,3,3,,,,,2018_Mar_12_1255,60.0046842605,test_experiment,001,1,
5,long,distractor,t2,K,17,0,0,0,0,16,0,16,0,0,4,4,4,,,,,2018_Mar_12_1255,60.0046842605,test_experiment,001,1,
6,long,distractor,t2,U,17,0,0,0,0,16,0,16,0,0,5,5,5,,,,,2018_Mar_12_1255,60.0046842605,test_experiment,001,1,
7,long,distractor,t2,Q,17,0,0,0,0,16,0,16,0,0,6,6,6,,,,,2018_Mar_12_1255,60.0046842605,test_experiment,001,1,
8,long,distractor,t2,G,17,0,0,0,0,16,0,16,0,0,7,7,7,,,,,2018_Mar_12_1255,60.0046842605,test_experiment,001,1,
9,long,distractor,t2,P,17,0,0,0,0,16,0,16,0,0,8,8,8,,,,,2018_Mar_12_1255,60.0046842605,test_experiment,001,1,
10,long,distractor,t2,M,17,0,0,0,0,16,0,16,0,0,9,9,9,,,,,2018_Mar_12_1255,60.0046842605,test_experiment,001,1,
11,long,target,t2,1,17,0,0,0,0,16,0,16,0,0,10,10,10,,,,,2018_Mar_12_1255,60.0046842605,test_experiment,001,1,
12,long,distractor,t2,P,17,0,0,0,0,16,0,16,0,0,11,11,11,,,,,2018_Mar_12_1255,60.0046842605,test_experiment,001,1,
13,long,distractor,t2,B,17,0,0,0,0,16,0,16,0,0,12,12,12,,,,,2018_Mar_12_1255,60.0046842605,test_experiment,001,1,
14,long,distractor,t2,H,17,0,0,0,0,16,0,16,0,0,13,13,13,,,,,2018_Mar_12_1255,60.0046842605,test_experiment,001,1,
15,long,distractor,t2,N,17,0,0,0,0,16,0,16,0,0,14,14,14,,,,,2018_Mar_12_1255,60.0046842605,test_experiment,001,1,
16,long,distractor,t2,Y,17,0,0,0,0,16,0,16,0,0,15,15,15,,,,,2018_Mar_12_1255,60.0046842605,test_experiment,001,1,
17,long,distractor,t2,U,17,0,0,0,0,16,0,16,0,0,16,16,16,,,,,2018_Mar_12_1255,60.0046842605,test_experiment,001,1,
18,long,distractor,t2,M,17,0,0,0,0,16,0,16,0,0,17,17,17,,,,,2018_Mar_12_1255,60.0046842605,test_experiment,001,1,
,,,,,,0,0,0,0,16,0,16,0,,,,,1,0.400183125976,4,0.766837528261,2018_Mar_12_1255,60.0046842605,test_experiment,001,1,
1,long,distractor,t2,P,18,0,0,0,0,17,0,17,0,0,0,0,0,,,,,2018_Mar_12_1255,60.0046842605,test_experiment,001,1,
2,long,distractor,t2,R,18,0,0,0,0,17,0,17,0,0,1,1,1,,,,,2018_Mar_12_1255,60.0046842605,test_experiment,001,1,
3,long,distractor,t2,M,18,0,0,0,0,17,0,17,0,0,2,2,2,,,,,2018_Mar_12_1255,60.0046842605,test_experiment,001,1,
4,long,distractor,t2,D,18,0,0,0,0,17,0,17,0,0,3,3,3,,,,,2018_Mar_12_1255,60.0046842605,test_experiment,001,1,
5,long,target,t2,1,18,0,0,0,0,17,0,17,0,0,4,4,4,,,,,2018_Mar_12_1255,60.0046842605,test_experiment,001,1,
6,long,distractor,t2,A,18,0,0,0,0,17,0,17,0,0,5,5,5,,,,,2018_Mar_12_1255,60.0046842605,test_experiment,001,1,
7,long,distractor,t2,B,18,0,0,0,0,17,0,17,0,0,6,6,6,,,,,2018_Mar_12_1255,60.0046842605,test_experiment,001,1,
8,long,distractor,t2,X,18,0,0,0,0,17,0,17,0,0,7,7,7,,,,,2018_Mar_12_1255,60.0046842605,test_experiment,001,1,
9,long,distractor,t2,C,18,0,0,0,0,17,0,17,0,0,8,8,8,,,,,2018_Mar_12_1255,60.0046842605,test_experiment,001,1,
10,long,distractor,t2,R,18,0,0,0,0,17,0,17,0,0,9,9,9,,,,,2018_Mar_12_1255,60.0046842605,test_experiment,001,1,
11,long,distractor,t2,E,18,0,0,0,0,17,0,17,0,0,10,10,10,,,,,2018_Mar_12_1255,60.0046842605,test_experiment,001,1,
12,long,distractor,t2,D,18,0,0,0,0,17,0,17,0,0,11,11,11,,,,,2018_Mar_12_1255,60.0046842605,test_experiment,001,1,
13,long,target,t2,6,18,0,0,0,0,17,0,17,0,0,12,12,12,,,,,2018_Mar_12_1255,60.0046842605,test_experiment,001,1,
14,long,distractor,t2,F,18,0,0,0,0,17,0,17,0,0,13,13,13,,,,,2018_Mar_12_1255,60.0046842605,test_experiment,001,1,
15,long,distractor,t2,V,18,0,0,0,0,17,0,17,0,0,14,14,14,,,,,2018_Mar_12_1255,60.0046842605,test_experiment,001,1,
16,long,distractor,t2,Y,18,0,0,0,0,17,0,17,0,0,15,15,15,,,,,2018_Mar_12_1255,60.0046842605,test_experiment,001,1,
,,,,,,0,0,0,0,17,0,17,0,,,,,1,0.783434252706,6,0.216816425853,2018_Mar_12_1255,60.0046842605,test_experiment,001,1,
1,short,distractor,t1,A,19,0,0,0,0,18,0,18,0,0,0,0,0,,,,,2018_Mar_12_1255,60.0046842605,test_experiment,001,1,
2,short,distractor,t1,G,19,0,0,0,0,18,0,18,0,0,1,1,1,,,,,2018_Mar_12_1255,60.0046842605,test_experiment,001,1,
3,short,distractor,t1,K,19,0,0,0,0,18,0,18,0,0,2,2,2,,,,,2018_Mar_12_1255,60.0046842605,test_experiment,001,1,
4,short,target,t1,2,19,0,0,0,0,18,0,18,0,0,3,3,3,,,,,2018_Mar_12_1255,60.0046842605,test_experiment,001,1,
5,short,distractor,t1,H,19,0,0,0,0,18,0,18,0,0,4,4,4,,,,,2018_Mar_12_1255,60.0046842605,test_experiment,001,1,
6,short,distractor,t1,O,19,0,0,0,0,18,0,18,0,0,5,5,5,,,,,2018_Mar_12_1255,60.0046842605,test_experiment,001,1,
7,short,distractor,t1,C,19,0,0,0,0,18,0,18,0,0,6,6,6,,,,,2018_Mar_12_1255,60.0046842605,test_experiment,001,1,
8,short,mask,t1, ,19,0,0,0,0,18,0,18,0,0,7,7,7,,,,,2018_Mar_12_1255,60.0046842605,test_experiment,001,1,
9,short,distractor,t1,M,19,0,0,0,0,18,0,18,0,0,8,8,8,,,,,2018_Mar_12_1255,60.0046842605,test_experiment,001,1,
10,short,distractor,t1,C,19,0,0,0,0,18,0,18,0,0,9,9,9,,,,,2018_Mar_12_1255,60.0046842605,test_experiment,001,1,
11,short,distractor,t1,Q,19,0,0,0,0,18,0,18,0,0,10,10,10,,,,,2018_Mar_12_1255,60.0046842605,test_experiment,001,1,
12,short,distractor,t1,U,19,0,0,0,0,18,0,18,0,0,11,11,11,,,,,2018_Mar_12_1255,60.0046842605,test_experiment,001,1,
13,short,distractor,t1,E,19,0,0,0,0,18,0,18,0,0,12,12,12,,,,,2018_Mar_12_1255,60.0046842605,test_experiment,001,1,
14,short,distractor,t1,J,19,0,0,0,0,18,0,18,0,0,13,13,13,,,,,2018_Mar_12_1255,60.0046842605,test_experiment,001,1,
15,short,distractor,t1,G,19,0,0,0,0,18,0,18,0,0,14,14,14,,,,,2018_Mar_12_1255,60.0046842605,test_experiment,001,1,
